motionRotationRateX(rad/s),motionRotationRateY(rad/s),motionRotationRateZ(rad/s),motionUserAccelerationX(G),motionUserAccelerationY(G),motionUserAccelerationZ(G),motionGravityX(G),motionGravityY(G),motionGravityZ(G),motionYaw(rad),motionRoll(rad),motionPitch(rad)
-0.14989077007922277,-0.20211173293419127,0.3150755443069325,0.07712535209720019,0.09528272217975664,0.10256532722018429,0.005844698783813416,0.039072439539363756,1.005269977380265,0.00031507554430693254,-0.0001498907700792228,-0.00020211173293419125
-0.37698154111118726,-0.20499248850978374,0.3121387058354894,0.15215936840649377,0.06506239232895075,0.1837088954892817,0.004342853633172861,0.034723473901701836,0.9891799991965848,0.000627214250142422,-0.00052687231119041,-0.00040710422144397507
-0.21944327147499107,-0.3620626140465234,0.16124427497921565,0.22895421159491613,0.08781557395765573,0.1491402817810012,0.012536104456336912,0.03235778863524915,0.9970274869559551,0.0007884585251216376,-0.0007463155826654012,-0.0007691668354904983
-0.16414512071277015,-0.22430755288421086,0.0934092923535218,0.23431140234064804,0.075222503428793,0.17853587315470715,0.009383697871291561,0.04445475371995357,1.0006255824612071,0.0008818678174751593,-0.0009104607033781713,-0.0009934743883747092
-0.15462419962470092,-0.15451033933997727,0.09868572895530787,0.2683567679337842,0.06987527065283461,0.20855101650515379,0.008633645222195493,0.028842354946256244,1.002468580585997,0.0009805535464304674,-0.0010650849030028721,-0.0011479847277146864
-0.10290451525159369,-0.16290810515840806,-0.06838571123770273,0.2093827964011058,0.027190289059740434,0.10427250465523942,0.009683461377404641,0.03756027155504715,0.9957708999911611,0.0009121678351927646,-0.001167989418254466,-0.0013108928328730944
0.09539428765841144,-0.1160419141586548,0.10062618402552728,0.22371584019153223,0.014979320602454514,0.15973157142972338,0.021696562838932405,0.04021183174663246,0.9980501029505224,0.0010127940192182917,-0.0010725951305960546,-0.0014269347470317493
-0.011464604163698613,-0.1351133811215536,-0.049982386213505106,0.14700533311293393,-0.004924366243916224,0.10564660416098444,0.015656742496243513,0.029357738472311726,1.0046052078911718,0.0009628116330047867,-0.0010840597347597529,-0.001562048128153303
0.14181673436065378,0.009424734682081895,-0.17226605118923732,0.2228156301448303,-0.02757805397646529,0.1547263169260868,0.007858739424699702,0.038519319475715956,1.0036662616553473,0.0007905455818155494,-0.0009422430003990991,-0.0015526233934712213
0.19837712188389212,-0.11399790329282261,-0.17384361246957794,0.19636433113128857,0.04534124209350904,0.10775828033965758,0.005831255419239001,0.029713859882410664,0.9929235942212561,0.0006167019693459714,-0.000743865878515207,-0.0016666212967640438
0.2015705990306606,0.08116929987446778,-0.2973779052971194,0.20034837893958224,-0.1073429250850552,0.1201080186786643,0.014113923362375175,0.03626442828436462,0.9948530688730721,0.0003193240640488521,-0.0005422952794845464,-0.001585451996889576
0.05217209357031083,0.03167645935625732,-0.2178902684221194,0.15734586802077724,-0.07539223464992081,-0.031434528357924124,0.006682884504218054,0.03587994457634686,0.9941617566161104,0.00010143379562673266,-0.0004901231859142356,-0.0015537755375333187
0.3577294882431955,0.19473196243203655,-0.10065162819075626,0.12639729537847597,-0.04520480673685224,-0.04440349782318947,0.012952460194298606,0.035379138182758826,0.9963494824689962,7.821674359763942e-07,-0.00013239369767104004,-0.0013590435751012822
0.2272744077843526,0.14748609736164303,-0.3017621777879289,0.06499408101229738,-0.08247160088917169,-0.08294703744849033,0.01860403181118313,0.032531803969901865,0.9981117505346625,-0.00030098001035195254,9.488071011331257e-05,-0.0012115574777396393
0.27990731917300876,0.33439085321565354,-0.24715451734430127,0.01751245866270351,-0.05900468226728222,-0.038876492319261165,0.019823561169064488,0.03984322857797167,0.9931750833009958,-0.0005481345276962538,0.00037478802928632134,-0.0008771666245239858
0.3627251554938224,0.24327243532405848,-0.12760702789480502,5.636290470684754e-05,-0.11023347866310544,0.005810967042500592,0.004688893834087179,0.03253521916457087,1.0040259819612323,-0.0006757415555910589,0.0007375131847801437,-0.0006338941891999272
0.42559600029327577,0.22825549036020354,0.022977476171403277,-0.036316582046580365,-0.12835864389533283,-0.09505248265220427,0.015281918263751604,0.03489361805294671,0.9976974960347226,-0.0006527640794196557,0.0011631091850734195,-0.0004056386988397236
0.28322395240060644,0.23167607428603595,-0.015817732504671618,-0.04024453242896492,-0.078167527439351,-0.10138298290487095,-0.004559848272260745,0.027162533440930014,1.0038455011868403,-0.0006685818119243274,0.0014463331374740258,-0.00017396262455368766
0.3030028403772583,0.34637739796209777,-0.05950878609339951,-0.10935746959294612,-0.02960835730033247,-0.08391988370611127,0.008134929093030638,0.03511635372832514,0.9982631350585506,-0.0007280905980177268,0.0017493359778512842,0.00017241477340841014
0.21956719062287203,0.23126624496591708,0.05756929843542779,-0.0890375598117159,-0.04943239573212521,-0.09706892254042626,0.010949732238626685,0.03845906072431469,0.9909274403675941,-0.0006705212995822991,0.001968903168474156,0.00040368101837432726
0.24850094617401564,0.1334157765130937,0.08365747532849711,-0.07442968800618005,-0.025189081287402614,-0.07419421956837934,0.015087291719129472,0.03330565432417277,0.9923094048716098,-0.0005868638242538019,0.0022174041146481717,0.0005370967948874209
0.20065210960550245,0.17244983690146654,0.09213371987986169,-0.14054360029699142,-0.0017626438356912666,-0.02176700604318614,0.016225974012199437,0.03982958779955784,0.9949509515208876,-0.0004947301043739402,0.0024180562242536742,0.0007095466317888874
0.024404227825880878,0.09554228751541405,0.08331110621717802,-0.1289552327903327,-0.009570668852234758,-0.019904469796703184,0.012107091151882311,0.025254993368307603,0.9982322479083166,-0.00041141899815676225,0.002442460452079555,0.0008050889193043014
0.12397634251916807,0.0037924846934047993,0.1741634146060601,-0.14232350186884854,-0.045249127239445124,0.03280199900442487,0.016911464382220343,0.040622171984402204,1.0002658481827285,-0.0002372555835507021,0.002566436794598723,0.0008088814039977064
0.044686741894672304,-0.0647248888079528,0.1501536921530379,-0.1345888521538915,-0.02162734108389777,-0.01678486276938014,0.01844482100153937,0.0340891750868567,0.997893748433421,-8.71018913976642e-05,0.002611123536493395,0.0007441565151897534
-0.04384269100490025,-0.12261347338126136,0.12219466790338246,-0.11188056868995981,-0.03071776499620283,0.045795062499611267,0.007949995545791682,0.026157311037107445,1.0004517866990723,3.509277650571827e-05,0.002567280845488495,0.0006215430418084921
-0.09090016555878386,-0.19459880646753958,0.1505027525862333,-0.09895112436961523,0.0032500440418766355,0.048238242593637744,0.015542181143858223,0.03926028473074844,0.9981463241900207,0.00018559552909195158,0.0024763806799297113,0.0004269442353409525
-0.20561139346763516,-0.25305441652290506,0.14029599249678074,-0.04703461970785181,0.0018656781169858823,0.03821893771577757,0.010323386392700782,0.04180986250207103,0.9937182623083906,0.0003258915215887323,0.002270769286462076,0.00017388981881804745
-0.26621615115714076,-0.2542419791135999,0.08701550463363367,-0.050457786751683276,0.04264550083741195,0.09246770663564273,0.017469533607939288,0.0331164373424168,0.994801782034759,0.000412907026222366,0.0020045531353049353,-8.035216029555249e-05
-0.4830630500593005,-0.4397337002697791,0.03338184498059049,-0.031051255136659912,0.010753604377979252,0.09627551787589833,0.019063726026182684,0.03196473551005293,0.9971028088843225,0.0004462888712029565,0.001521490085245635,-0.0005200858605653316
-0.41564825859666016,-0.43896919093301345,0.07194131467323957,0.05857274286646786,0.03469807269879971,0.12131058750203688,0.015527002166361804,0.023170371040746585,0.9989072857838022,0.0005182301858761961,0.0011058418266489747,-0.000959055051498345
-0.5539328697526321,-0.35038136158203204,0.01585397813153716,0.05990495165759457,0.08411596343735146,0.11488916244381266,0.019478447906507008,0.03550234742247035,0.9938897704523135,0.0005340841640077333,0.0005519089568963426,-0.0013094364130803772
-0.4326277164662958,-0.3873763908862306,-0.08954502097395117,0.055470267682597926,0.0858591777932964,0.10459816874810841,0.0115958402361977,0.04190306361114226,1.0001355198278354,0.000444539143033782,0.00011928124043004679,-0.001696812803966608
-0.6470967768816304,-0.45361483125412805,-0.09711199563114947,0.10710964878350018,0.0720007243140903,0.10424979506079966,0.02164201450129617,0.028847607276831676,0.9893686697334254,0.00034742714740263256,-0.0005278155364515836,-0.0021504276352207357
-0.6143766272178888,-0.3506717894935071,-0.05786349645689018,0.1665382235442618,0.01667554017879185,0.05537881471954507,0.00989228569588853,0.022564888589790322,0.9951391262980341,0.00028956365094574236,-0.0011421921636694723,-0.002501099424714243
-0.5441954336684933,-0.4414616753335394,-0.2992116564185479,0.18845740204024736,0.14213781664503705,0.04893098024884213,0.01741796781416876,0.038330079968915125,0.9933772511558852,-9.648005472805589e-06,-0.0016863875973379657,-0.0029425611000477823
-0.552339948311927,-0.46251144585951237,-0.2027369720947878,0.17462363109879014,0.028985657876286916,0.011228394437065815,0.015448469568031418,0.030287089821414613,1.0075951888879247,-0.0002123849775675934,-0.0022387275456498927,-0.0034050725459072945
-0.53277649986403,-0.3742889706664556,-0.3351545565799945,0.1772889595258766,0.042875854862744034,-0.020113357357567294,0.017360111665798896,0.024894034133316374,1.0011312762741091,-0.000547539534147588,-0.0027715040455139226,-0.0037793615165737505
-0.548166669455412,-0.23891026627742976,-0.23385808055388269,0.1681659684368344,0.010658808646195856,-0.024221922320490856,0.011353594073968028,0.036091530002737154,0.9994416109260079,-0.0007813976147014707,-0.003319670714969335,-0.00401827178285118
-0.5545069744547687,-0.18762765698107603,-0.22593583123730127,0.10861542130216664,0.005503677812319219,-0.03376805055681809,0.020381592395688528,0.03380238697015037,1.0023396395694053,-0.0010073334459387718,-0.0038741776894241037,-0.004205899439832256
-0.5059617972254236,-0.02312113730105589,-0.23667866436408866,0.15464275774923908,-0.07955964413013278,-0.09840957361963347,0.02296754378244234,0.03413978978450874,1.0004420567013268,-0.0012440121103028607,-0.004380139486649528,-0.004229020577133312
-0.3917846646876523,0.08972601593784095,-0.1714081071569098,0.08655482893614432,-0.003239161787940863,-0.048653589516156594,0.019750232702153758,0.033397922107986505,0.987304557934167,-0.0014154202174597704,-0.004771924151337179,-0.00413929456119547
-0.387298553169016,0.11682888838500921,-0.08485226473615562,0.028280211282329926,-0.06244495360439103,-0.10138293643275308,0.018534219079541617,0.027307679191961948,0.9983970153792537,-0.001500272482195926,-0.005159222704506195,-0.004022465672810461
-0.23693383960457495,0.1631794434963064,-0.06926313151399052,-0.0013784401361598697,-0.005415672194859392,-0.07420636923797892,0.013425765266276413,0.03194444941672524,1.0011286404039355,-0.0015695356137099164,-0.00539615654411077,-0.0038592862293141544
-0.20941999649380674,0.17133529060334685,0.031915742142539415,-0.01948810921139431,-0.04459501665525665,-0.1272611882762616,0.03026352280299742,0.02774821784248626,1.004852062286427,-0.0015376198715673771,-0.005605576540604578,-0.003687950938710808
0.03022811041146757,0.31000704525745154,0.003710226009025753,-0.028815652419453434,-0.022959485998361815,-0.13265352477294157,0.019501245952864458,0.03121334894683064,0.9929842105697726,-0.0015339096455583513,-0.00557534843019311,-0.0033779438934533564
0.022893732715226274,0.42716393491312915,0.12173628085514525,-0.07124325018954404,-0.0988324374074388,-0.19088611854906248,0.015255495603105785,0.04303869376494513,0.9975418105516041,-0.001412173364703206,-0.005552454697477884,-0.002950779958540227
0.11596494870458182,0.41288766248861053,0.12871944586756032,-0.135857610373155,-0.11742758976609535,-0.16044676243123052,0.0017665185424373432,0.0263715332486432,1.0011597303829662,-0.001283453918835646,-0.005436489748773302,-0.0025378922960516167
0.15908220636628193,0.43019041242445316,0.11834403399792617,-0.1999499871684711,-0.06735909312133392,-0.12496031448631535,0.01255951107572213,0.02599222702460749,0.9975584191880937,-0.0011651098848377195,-0.00527740754240702,-0.002107701883627163
0.2038351673622507,0.4170385596722387,0.2793133253353383,-0.10608770950921713,-0.08758130360244412,-0.1130012212273334,0.020933856624182307,0.03218640355361354,0.9984175582556456,-0.0008857965595023811,-0.005073572375044769,-0.0016906633239549248
0.3388664175215614,0.294368012579344,0.34046895128326415,-0.1705178004805537,-0.08412276693019179,-0.12498363211706622,0.014593566189924332,0.026800774278770506,1.0005413701831005,-0.000545327608219117,-0.004734705957523208,-0.0013962953113755806
0.3539981791961622,0.5041163056084275,0.29415464740660313,-0.1608484045639825,-0.10976778845174004,-0.040593480356829234,0.013156235082052107,0.030013788734818934,1.0032488270810567,-0.00025117296081251383,-0.004380707778327045,-0.000892179005767153
0.3336306118108917,0.3699631610051952,0.3312310527537625,-0.2161962426438267,-0.13538441797106648,-0.04079435013764954,0.019393148009904743,0.03345814726747062,0.9964392438154138,8.00580919412487e-05,-0.004047077166516153,-0.0005222158447619578
0.3742974263389382,0.39195284723655327,0.4931155552797869,-0.22143034357226019,-0.1239680131440564,-0.0349495624961885,0.012344807408481978,0.0374992053818565,1.0025315504675407,0.0005731736472210356,-0.0036727797401772144,-0.00013026299752540456
0.40456340486149855,0.17309845068682925,0.29229391370403224,-0.1851824508357079,-0.06416080373718226,-0.006477216809525845,0.01705200949391098,0.02798341589014128,0.9928802354211207,0.0008654675609250679,-0.0032682163353157157,4.2835453161424705e-05
0.6697155104886239,0.2618703783016801,0.3332716871826182,-0.1986584420224311,-0.06174182519969574,0.05199202164025801,0.02155303096675976,0.03539708025412244,0.9880113818928146,0.0011987392481076862,-0.002598500824827092,0.00030470583146310486
0.5706025673029337,0.18968936847988677,0.2288573345194833,-0.1813119837695329,-0.04946113437969466,0.0692336336204916,0.013254767023756877,0.03754754670844154,0.9930515687176692,0.0014275965826271693,-0.0020278982575241584,0.0004943951999429916
0.5871324543961598,0.12597935589354245,0.14476108429110157,-0.13569773513793687,-0.06617362256090778,0.09157709871676409,0.013077395420945768,0.029828831295293845,0.9991383190056337,0.001572357666918271,-0.0014407658031279987,0.0006203745558365341
0.5294362442647162,0.13280498042632785,0.04263450463167423,-0.17873110864359018,-0.07531865782709593,0.10203010565533022,0.019318258059360452,0.02450733267031146,1.0086841544567862,0.0016149921715499452,-0.0009113295588632824,0.0007531795362628619
0.5803603151919232,0.0036250630427781157,-0.018284759813472877,-0.05345780584582201,-0.03887278716309064,0.13908709974910982,0.020510472684445478,0.026445420309006266,0.9998307357362258,0.0015967074117364723,-0.00033096924367135915,0.00075680459930564
0.48463629842131,0.039357890209589866,-0.1617382504454114,-0.07724220056979121,-0.029273751316864,0.18841871849605848,0.011456677707502274,0.028918761811185315,1.0085634101156915,0.001434969161291061,0.00015366705474995087,0.0007961624895152299
0.520808461260106,-0.16093498433491898,-0.1139308697605433,-0.02682843592665729,0.05966160174901393,0.15330219948703577,0.015154924555807905,0.034485966854593895,0.995150362263506,0.0013210382915305177,0.0006744755160100569,0.0006352275051803109
0.25281812337117315,-0.26973694984911417,-0.2659872470914311,0.005214675890191951,0.06112388917043591,0.15412734117834623,0.024411843663346654,0.030581445767480456,0.9933610832057811,0.0010550510444390865,0.00092729363938123,0.00036549055533119677
0.4331369508105315,-0.2220535450407918,-0.12312403339307476,0.04575394902105572,0.0244884458826713,0.10111938502621225,0.01679135212292804,0.021452185561135692,0.9976684193009702,0.0009319270110460118,0.0013604305901917615,0.00014343701029040495
0.3430389502736835,-0.17426351561559295,-0.1509175848217293,0.0969168339640553,0.11972358265434711,0.07177755270479967,0.019682409690332185,0.038411119560567794,0.9997956666133518,0.0007810094262242826,0.0017034695404654452,-3.082650532518802e-05
0.187087051972341,-0.37265990212853717,-0.15801465112240418,0.16000214508091765,0.08074521885370024,0.13721471760793186,0.0178701616758552,0.02674887871756989,1.0035676758761918,0.0006229947751018785,0.0018905565924377862,-0.00040348640745372527
0.21363693586550678,-0.28470710304153224,-0.19624636720631267,0.19398352859492074,0.0750986876597231,0.1298824336468802,0.022436009465333532,0.028474115087121055,1.0009958001962003,0.00042674840789556575,0.002104193528303293,-0.0006881935104952575
0.122580790526885,-0.31695626798045906,-0.16193775484674103,0.20049279088679364,0.07693830703019101,0.05331900272622235,0.014037456483800528,0.030356221851864033,1.0013497827704443,0.0002648106530488247,0.002226774318830178,-0.0010051497784757167
0.05611567977402378,-0.14918787826272842,-0.1480727139296237,0.21836791441206674,0.12106798313163611,0.07144321225754689,0.024539862669497304,0.027497286824188817,1.009838874146623,0.00011673793911920097,0.0022828899986042017,-0.0011543376567384452
0.04835114996578309,-0.08226632679539835,-0.0761204298520663,0.19758551101937782,0.07898428560954546,0.040193034495713084,0.013384186624926204,0.028571974298251084,0.9898362253789327,4.0617509267134676e-05,0.002331241148569985,-0.0012366039835338435
0.012389964366858838,-0.1847201794034494,-0.031864491295167295,0.2169290061776086,0.13117497733767866,0.05996326629779374,0.024157518054534293,0.02848363227286156,1.002169926556135,8.753017971967377e-06,0.002343631112936844,-0.0014213241629372928
-0.01910013816525627,-0.2832790429915836,-0.07263354405080517,0.2486418070943684,0.08247960207050901,-0.019090960723435413,0.020405586746589266,0.030735921543759474,0.9961262240650797,-6.388052607883779e-05,0.0023245309747715872,-0.0017046032059288764
-0.17224430923632691,-0.07497096829165632,0.13570208828055588,0.2094096852254574,0.10691942703737316,-0.015074007621272376,0.018142300660415767,0.026843208856430305,1.0049909170508786,7.18215622017181e-05,0.0021522866655352604,-0.0017795741742205327
-0.21442313053570583,0.0053791414125059795,0.11704453591222913,0.24261738272688715,0.11070009145502976,-0.08996187252281893,0.01470438311017037,0.026797972260056164,1.0011488609688661,0.00018886609811394724,0.0019378635349995546,-0.0017741950328080268
-0.2945426148015811,-0.06474472030391829,0.04369359787124978,0.13323502253585776,0.051862690853697144,-0.08258497871546132,0.015141621207857427,0.025289698124259352,0.998075480298663,0.00023255969598519699,0.0016433209201979736,-0.001838939753111945
-0.3146351328938893,0.14805525361932778,0.18476466150297716,0.21627363233139918,0.07803346654199313,-0.10002275836856735,0.013043058408310888,0.0295242595977976,1.0016249893077636,0.00041732435748817416,0.0013286857873040844,-0.0016908844994926173
-0.4023832793685946,0.26054145082670355,0.2654495411245521,0.12637978116144774,0.08986006022073452,-0.07729359604467888,0.0201784585718384,0.03137308755333851,1.0012554964065976,0.0006827738986127263,0.0009263025079354897,-0.001430343048665914
-0.3195510492911612,0.28070958292377846,0.11212952367706727,0.06812411454782277,0.008080689396061144,-0.07507757989288842,0.017688588997481106,0.02810158044192558,1.0008652575175512,0.0007949034222897938,0.0006067514586443285,-0.0011496334657421353
-0.2898270969748405,0.25902548314567503,0.02222813563788459,0.03913982806149963,0.027000314370700353,-0.0866155357694166,0.01386901257934342,0.030088034701629945,0.990816592349103,0.0008171315579276784,0.000316924361669488,-0.0008906079825964602
-0.4164119221241345,0.3228082703601556,0.09927742066543446,-0.010868769564716885,0.05769941617002903,-0.01583581954401403,0.01730790992115537,0.023359864756078753,1.0037775341424107,0.0009164089785931126,-9.948756045464658e-05,-0.0005677997122363046
-0.2460717271254017,0.25616204767642997,0.27957201787949537,-0.03400221394611368,0.010853630948155344,-0.09022493238453057,0.023262960275807005,0.03191189862283065,0.9890698845336123,0.0011959809964726081,-0.0003455592875800483,-0.0003116376645598746
-0.38726291204811025,0.20925629274951585,0.04100585405369704,-0.03618654405630735,-0.015010110894544897,-0.03394031621530879,0.014171189922654004,0.0193362506901408,1.0020250989306485,0.0012369868505263052,-0.0007328221996281586,-0.00010238137181035873
-0.26573046756450114,0.3019002181045989,0.11460548432216187,-0.047939960357503135,-0.0015954721448129222,0.004192938077432307,0.027301895804476055,0.026833253401854933,1.0022645704733193,0.001351592334848467,-0.0009985526671926598,0.00019951884629424018
-0.12069118443993186,0.29720132029716484,0.012053092845355821,-0.08520979512450866,0.01287168920549047,0.034032674014084524,0.018426412025544524,0.025757597340846816,0.9976189107508552,0.0013636454276938226,-0.0011192438516325915,0.000496720166591405
-0.23389287698068417,0.12666668155902966,0.12001297479219095,-0.07219801832204938,-0.027451366532260497,0.031790022995534004,0.005950500655486413,0.031119210941390297,1.0046748213544119,0.0014836584024860136,-0.0013531367286132756,0.0006233868481504347
0.024103246538383402,0.12038400221355341,-0.008929775274050963,-0.16039792907165762,-0.005110458193866975,0.07387788073504796,0.025374951332097603,0.026252195254093617,1.0024071811752278,0.0014747286272119627,-0.0013290334820748922,0.000743770850363988
-0.023297937501987998,0.13259821064536917,-0.12612302782120555,-0.10980549028736143,-0.06120756680471153,0.06352790432216915,0.01537721129045256,0.02507775319573132,0.9994954423070431,0.0013486055993907572,-0.0013523314195768802,0.0008763690610093573
0.14560471631017097,0.17125136151077763,-0.23205638881938231,-0.1050929315917804,-0.027368840378309663,0.08766711937166463,0.011743805097087594,0.025523848225457092,1.0056037055165672,0.0011165492105713749,-0.0012067267032667092,0.001047620422520135
0.09295179769994433,-0.07625399950158124,-0.17741705030824295,-0.0862318498346255,-0.08480817807190344,0.10631665048894284,0.010791456727860332,0.027345704492025957,0.9921655791844571,0.0009391321602631319,-0.0011137749055667647,0.0009713664230185538
0.14476721883767968,-0.052534741440096545,-0.4120988128000149,-0.1509211757787432,-0.006276329432370706,0.09324508040770865,0.011809871810325362,0.02566721003160244,0.9993211207641594,0.0005270333474631169,-0.0009690076867290851,0.0009188316815784572
0.17841885634382243,-0.2616857094029784,-0.3558076345642567,-0.09300121813884647,-0.05388873727408873,0.10891846620595363,0.014021170425719662,0.01822839374860391,0.9930211262119439,0.00017122571289886025,-0.0007905888303852628,0.0006571459721754788
0.26638495748286606,-0.18785391395687479,-0.29462488782215357,-0.07788029546753833,-0.047563143874299905,0.07134918106450723,0.024902574793393407,0.021640325505115944,0.9970676496805437,-0.00012339917492329333,-0.0005242038729023965,0.000469292058218604
0.24003484181315116,-0.3153327018506142,-0.4234027094447006,-0.03429720919516195,-0.0015707451842455807,0.07450563413634827,0.005574070934681411,0.02921095997811594,0.9978497095376996,-0.000546801884367994,-0.0002841690310892454,0.0001539593563679898
0.2971868365602685,-0.42233325775647645,-0.2868786579212849,-0.026159753886295184,-0.03107143841923437,0.05918729734201035,0.014872734391891889,0.026961484722647068,1.0041087173876337,-0.0008336805422892789,1.3017805471023104e-05,-0.00026837390138848667
0.38301167560023747,-0.4418187789214467,-0.36647310980309367,0.009809424342809799,-0.029824811425166596,0.03245076334551196,0.03506714864072595,0.023304204619702097,0.9999245508556535,-0.0012001536520923723,0.0003960294810712606,-0.0007101926803099335
0.2650540294576492,-0.31127513518889993,-0.19070006951621865,0.035486969750881586,-0.02993615410350943,0.038152058651178385,0.019523079649139064,0.0247745630739077,0.9993217775894971,-0.001390853721608591,0.0006610835105289098,-0.0010214678154988333
0.3916900360313475,-0.43222428046218037,-0.16543667711498075,0.0394906211124944,0.010018222553354047,0.012983460324702885,0.01741188300556018,0.013315925325027508,1.000625820062942,-0.0015562903987235716,0.0010527735465602572,-0.0014536920959610138
0.35347447005255594,-0.5509930852770368,-0.10094702451617216,0.08799000029105386,0.002619046787526413,-0.03783053752085334,0.01900810254131824,0.026331052792784408,1.0002095869668293,-0.001657237423239744,0.0014062480166128133,-0.002004685181238051
0.38423063853467254,-0.46508490579527995,0.0005164751972557141,0.1054678583030667,0.012193630279648201,-0.044007668396818814,0.0260183525880363,0.027753483653875713,0.993284793611182,-0.001656720948042488,0.0017904786551474858,-0.0024697700870333307
0.3477166725524607,-0.2585647905880393,0.040756926254319724,0.12649796785790404,0.06118048497729031,-0.1032964569936952,0.01124323004774411,0.027622833912776406,0.9905819317156807,-0.0016159640217881686,0.0021381953276999465,-0.00272833487762137
0.2971989522734044,-0.488029888921352,0.16635276127599122,0.10557124618828344,0.06408713288919432,-0.12651874392109672,0.026352230111857604,0.03045179072518847,0.9997729368574904,-0.001449611260512177,0.002435394279973351,-0.003216364766542722
0.17493830755179968,-0.29926825470302926,0.10205263619166403,0.16759845537109044,0.0162652655784168,-0.04444970480598292,0.027500020943112574,0.03238141538535635,0.993975207277709,-0.0013475586243205133,0.0026103325875251504,-0.003515633021245751
0.20144899438756148,-0.05529868624209841,0.11914878632242898,0.15353543286318144,0.02141936012445271,-0.1455695279195737,0.016751545670164927,0.018123235104056362,1.0030060571651873,-0.001228409837998084,0.0028117815819127118,-0.00357093170748785
0.09927696905947594,-0.27569179612822287,0.3760124649183666,0.17406236148296847,-0.0022122195785170247,-0.14286532339051758,0.016955446519002857,0.03154133990574402,1.0066411507823976,-0.0008523973730797176,0.002911058550972188,-0.003846623503616073
0.023272610972784904,-0.11334961682175068,0.2384045339762066,0.07114121871288095,0.014472865633853546,-0.10881396014019581,0.028528558608405433,0.024046335534419483,1.0018777431957733,-0.000613992839103511,0.0029343311619449727,-0.003959973120437823
0.0805676388303612,-0.06183572293343748,0.2921551785062736,0.10006659405864773,0.11815371739332273,-0.13260549620585121,0.028744977532104123,0.020727520438767258,0.9991318747737048,-0.00032183766059723745,0.003014898800775334,-0.004021808843371261
-0.07374985116652617,0.12839366415062817,0.35922662986532367,0.14535627135574566,0.04617672639444914,-0.15055719180745647,0.015453011133865699,0.031043752041720475,1.005247712640502,3.738896926808627e-05,0.0029411489496088076,-0.003893415179220633
-0.1427619416581291,0.1290565416164655,0.24623972544550674,0.06014587425619784,0.06865470129926365,-0.115517108146018,0.010978510610930883,0.034079434020943426,0.9917548712715324,0.000283628694713593,0.002798387007950679,-0.003764358637604168
-0.09460599501627792,0.24786455989109166,0.16797539972934056,0.009536325532497,0.041793587300568535,-0.0802204473866795,0.025586068022520343,0.028821537626681944,1.0007196766260809,0.0004516040944429336,0.002703781012934401,-0.0035164940777130758
-0.32464986883658903,0.2280304323969001,0.23206854209274472,-0.0523839104326842,0.05745293933373503,-0.12275639527386493,0.006618579348042681,0.02216765482618524,0.9934309392695333,0.0006836726365356783,0.0023791311440978123,-0.003288463645316176
-0.30438965392655726,0.2619831096705072,0.1165533719980145,-0.09273349628658772,0.047615205228246686,-0.07064011717806432,0.02203404749531195,0.020383739817022406,1.005507270942276,0.0008002260085336928,0.002074741490171255,-0.0030264805356456687
-0.3324716165320395,0.4093572209844585,0.256063574248535,-0.13340767589180458,-0.046756656923976375,-0.03786779260915063,0.011987965649701495,0.01983041446690887,0.9990156946848641,0.0010562895827822278,0.001742269873639215,-0.0026171233146612106
-0.6401414895825657,0.38390139692222963,0.09132468270112201,-0.1143851650314663,-0.006564524140299529,0.07830322891359498,0.017446990506531333,0.0267394566269613,0.9958038491256616,0.0011476142654833499,0.0011021283840566493,-0.002233221917738981
-0.2867265485758264,0.4109265478670334,0.11240020610985393,-0.1674170735455615,-0.016168679669285316,0.0025340031969377248,0.0164959011608641,0.019276537087814207,0.9955285229208086,0.001260014471593204,0.0008154018354808231,-0.0018222953698719471
-0.6343137176544653,0.3319583359280637,-0.05984331251001482,-0.2060706596202453,-0.01710849477410815,0.07441284489936816,0.023607124564395218,0.026381969560499145,0.9980762589499591,0.001200171159083189,0.0001810881178263577,-0.0014903370339438837
-0.5933776496721337,0.3186551713987186,-0.050730706609866165,-0.20163858288910377,-0.06289802375297371,0.12708363493530397,0.0197949864817746,0.02273031469275721,1.0041160185894302,0.001149440452473323,-0.000412289531845776,-0.0011716818625451652
-0.5428820028587732,0.3599727342191551,-0.16122753446379268,-0.19205163889037655,-0.05017240721387985,0.12249021459356281,0.018048106969460048,0.01999815454112991,1.0044113479778547,0.0009882129180095302,-0.0009551715347045492,-0.00081170912832601
-0.5703761913014445,0.3802325174113405,-0.21102094862206305,-0.2277579309652828,-0.08654104803477115,0.1345805862178898,0.020332054925123088,0.021839596237311045,1.0037212467886274,0.0007771919693874672,-0.0015255477260059935,-0.00043147661091466947
-0.5714713302350284,0.41982984337754625,-0.2689029593059473,-0.26490496435027516,-0.11122390227108145,0.1943992257800679,0.029218416215121668,0.022862585533602715,0.9994449469717621,0.0005082890100815199,-0.002097019056241022,-1.1646767537123183e-05
-0.6961221821257868,0.3050168440703742,-0.14685589801929427,-0.22250504754999884,-0.10157001171218191,0.12410739030813274,0.015860421195747074,0.020843429393598602,0.9983445981303767,0.0003614331120622256,-0.002793141238366809,0.0002933700765332511
-0.5318453963593315,0.2708963847088125,-0.1443179834056292,-0.1395027437894205,-0.12803873253649353,0.14827379614361252,0.024374783953175265,0.024116872406425426,0.9990732590042637,0.00021711512865659635,-0.0033249866347261404,0.0005642664612420636
-0.46193147282026703,0.1281696751395373,-0.20922719464980274,-0.14500354226597745,-0.07338379752673929,0.13550136839474802,0.015165716797281546,0.023808888168425572,1.0062075695025712,7.887934006793607e-06,-0.0037869181075464078,0.000692436136381601
-0.3984615817746674,-0.06898819502611829,-0.17662084489272653,-0.144355483874758,-0.10622298986351411,0.13984971502012647,0.01787767747076051,0.02480270842822516,1.0052514802957881,-0.00016873291088593295,-0.004185379689321075,0.0006234479413554828
-0.2875788626133516,0.11104694527227964,-0.04759976062240658,-0.10141881333727248,-0.13027529662611817,0.14088577525058474,0.01491525242422781,0.019577856524420626,1.0082391500981944,-0.0002163326715083395,-0.004472958551934427,0.0007344948866277623
-0.16598519064719885,0.11066917123011974,-0.0879230456940438,-0.056820331273908696,-0.10180953646540043,0.13497974662366427,0.020157243890969834,0.015710564477282335,1.0009696637772547,-0.00030425571720238333,-0.004638943742581625,0.000845164057857882
-0.11222151977274082,-0.12690959856280992,-0.03042882262180702,-0.02292428300321777,-0.09317192562018509,0.14123102552315456,0.022896065200385552,0.02899266117267678,1.0010610568500158,-0.00033468453982419036,-0.004751165262354366,0.0007182544592950722
0.03645635877664144,-0.11624527780711635,0.17868502669822417,0.036675313079074824,-0.11770804482701971,0.04154251232477915,0.014523870657486272,0.013551676267662738,0.9966012225744756,-0.00015599951312596618,-0.0047147089035777245,0.0006020091814879559
0.002145495781658475,-0.2566270527533298,0.0844835366698334,0.095642850147278,-0.051411695580450736,0.06804214146309912,0.020829447277990406,0.021931541439612724,1.0043312264096411,-7.151597645613277e-05,-0.004712563407796066,0.000345382128734626
-0.03929531477015863,-0.19959610868429142,0.07371706147752072,0.09707231107435087,-0.06701799027768703,0.030206129958947947,0.021212451730372065,0.019465685549759193,0.9985288112024939,2.2010850213879527e-06,-0.004751858722566224,0.00014578602005033456
0.12088577985751088,-0.3875265132381078,0.11825195158236776,0.13892378022590537,-0.03555610201444542,-0.03179650221290292,0.021156049790491804,0.017833729180535583,0.9888595845404728,0.00012045303660375572,-0.004630972942708714,-0.00024174049318777323
0.23989921138032946,-0.22010843341661965,0.2788165932364376,0.1453975275666419,-0.04438001631255712,-0.06852382103234607,0.012754913120476993,0.02394784127923495,0.995546463542588,0.0003992696298401933,-0.004391073731328385,-0.00046184892660439293
0.31992989474247036,-0.0609590204112162,0.19514416826918193,0.21852517038480893,-0.04326645103143359,0.014318506376354961,0.025994527957895953,0.019477937948458608,0.9978049821871466,0.0005944137981093753,-0.0040711438365859135,-0.0005228079470156091
0.42180625037575303,-0.28220081499845767,0.17300431969850738,0.24232214752017925,-0.0331779325301133,-0.03322876003116228,0.018564798966830304,0.015523390724097532,0.9999783563616561,0.0007674181178078827,-0.003649337586210161,-0.0008050087620140667
0.32494852831483945,-0.1836027309726377,0.06874178193034335,0.20594246217092027,0.039244604868396565,-0.057473718911663564,0.01833123129522758,0.011850166693310689,1.010388342949808,0.000836159899738226,-0.003324389057895321,-0.0009886114929867045
0.39718461727610666,-0.09174759169842896,-0.012022518631866957,0.25549023246361396,0.057459632624585776,-0.08850476225513956,0.01780790889208126,0.021514781264089223,0.9962927330006162,0.000824137381106359,-0.002927204440619215,-0.0010803590846851334
0.5998833419465869,-0.16304925535447923,0.15758432200675218,0.27725793043175456,0.02566316165398184,-0.06290782019391317,0.013802154107104985,0.013994634442835663,1.0005871462778637,0.0009817217031131112,-0.002327321098672628,-0.0012434083400396125
0.5495229067344748,-0.13869605775055618,-0.060132606062318364,0.24398211183111007,0.0375122000618102,-0.060867675045512305,0.022557024921863237,0.020015584300006307,1.0016274559934797,0.0009215890970507928,-0.0017777981919381532,-0.001382104397790169
0.5203542214865895,-0.09383259276901343,-0.012353757132688648,0.23781391204534114,0.027598020402330784,-0.07644233993563268,0.020700904423899654,0.014972536077360713,1.0099489703707247,0.0009092353399181042,-0.0012574439704515637,-0.0014759369905591822
0.5232699024993609,-0.03417964237946182,-0.1134509868174785,0.14535500438353194,0.10567358601628914,0.007018919424876055,0.02439432185312161,0.01415669422446825,0.9978401884714176,0.0007957843531006258,-0.0007341740679522028,-0.001510116632938644
0.5194260411450443,-0.048949900636679644,-0.06296581551781638,0.18244997981852826,0.10014762513304781,-0.028166052122595077,0.024735715584349085,0.01954868852496748,0.9923153378279412,0.0007328185375828094,-0.00021474802680715845,-0.0015590665335753237
0.5411021967725935,0.023889402805158,-0.18121393136072989,0.13804047217932536,0.061422740279407584,-0.06438504261176779,0.017892613438151052,0.014250360689463112,1.0080600293967117,0.0005516046062220794,0.0003263541699654351,-0.0015351771307701657
0.6125328709330433,0.16523583252637644,-0.15567207261636842,0.12103379058078048,0.1538466213290554,0.020347297583855013,0.024915190684244838,0.018892626354124892,0.9992986154711693,0.000395932533605711,0.0009388870408984784,-0.0013699412982437892
0.5262680443089699,0.2549014504139279,-0.2416246623129126,0.01768771871774496,0.10835940871820095,-0.009843022989194162,0.017125004261137826,0.017111528372829247,0.9996640156909229,0.00015430787129279842,0.0014651550852074486,-0.0011150398478298612
0.34622767275268335,0.3962238774498048,-0.25319276687901465,-0.008717604384376519,0.07974331391398556,0.02209184716078829,0.026418831476457502,0.019345717923203852,0.9989918115920267,-9.888489558621626e-05,0.0018113827579601318,-0.0007188159703800563
0.29894442184481246,0.35816953050634526,-0.26114955799460055,-0.0725984439682848,0.10967889471985474,0.10691164926913095,0.025580027742331847,0.009684865217670344,0.9914658542026809,-0.00036003445358081675,0.0021103271798049443,-0.0003606464398737111
0.3146433486176529,0.1766195396981857,-0.25505151024207184,-0.020333016920687473,0.07534284075664474,0.05316700997485,0.01527445415172984,0.011729904415940776,1.0051031924242608,-0.0006150859638228887,0.002424970528422597,-0.00018402690017552535
0.2756532425151595,0.21518807060671627,-0.20609245152197292,-0.07412605350345053,0.030447738481006056,0.06512486334051962,0.02528197482151715,0.018311036322427365,1.0034582101527394,-0.0008211784153448617,0.002700623770937757,3.116117043119093e-05
0.24396984861867915,0.17363975709042645,-0.2832666303386004,-0.10492711563436292,0.033478477365352706,0.10957833371098943,0.019146865567837262,0.011750252679335833,0.9970211581488069,-0.001104445045683462,0.0029445936195564362,0.00020480092752161742
0.1923513054201818,0.23365638456353854,-0.3435777260757665,-0.09917767789510085,0.050463243992853,0.06240944272477825,0.015573913670728204,0.017016777156455835,0.9993965295507231,-0.0014480227717592286,0.0031369449249766175,0.0004384573120851559
-0.06770460925226887,0.15617783259216955,-0.1905250017078635,-0.12333627629447617,0.036002260337590394,0.07524897176616295,0.022012288022863723,0.016200115237987523,0.9974620048432834,-0.0016385477734670922,0.0030692403157243486,0.0005946351446773255
-0.039276602408832344,0.226223588043857,-0.1325704781723145,-0.11208982903149871,0.010776561246993721,0.124504056328477,0.01017076140179069,0.016192353142103884,1.0043083173899863,-0.0017711182516394067,0.0030299637133155166,0.0008208587327211826
-0.15923637478226607,-0.008728567498401937,-0.058029894187725334,-0.12470323535189962,0.03406979309800945,0.10636231117616783,0.017749281327308623,0.013498343033894366,1.0027148027151778,-0.001829148145827132,0.0028707273385332505,0.0008121301652227807
-0.1627946085893928,0.13288010333211492,-0.06344724675972194,-0.13339712080281121,-0.04656041540978963,0.03989093542682129,0.023282496289843184,0.012353073032460514,0.9997986332962209,-0.0018925953925868538,0.0027079327299438577,0.0009450102685548957
-0.2879540429470459,-0.019843803939454938,0.10032974465000516,-0.11917275650070891,-0.026256110778942424,0.06133382766817006,0.017509745170695402,0.020675857619854417,0.9998078322666718,-0.0017922656479368486,0.0024199786869968116,0.0009251664646154406
-0.35496190115453774,-0.07238368657899195,0.06702595007685308,-0.030404253370628936,-0.04569448232000011,0.022130445127668853,0.01665073624003946,0.005594002514694966,0.9961986625780789,-0.0017252396978599954,0.002065016785842274,0.0008527827780364487
-0.41606948518290193,-0.20494370194009986,0.2687156822245426,-0.0008939667948833739,-0.008190883611666902,0.022511944039536227,0.01843178347987408,0.008255292260746089,0.9910821058729385,-0.0014565240156354528,0.001648947300659372,0.0006478390760963488
-0.2745758305703107,-0.29462918633463475,0.30875545712814195,-0.037468149968171424,-0.06907821915197211,-0.04480735479954972,0.024725259209976622,0.01805195314913509,1.004716904137872,-0.001147768558507311,0.0013743714700890613,0.0003532098897617141
-0.3479788258502206,-0.31253177634380325,0.37389348737711975,-0.01907115209201355,-0.0372984531138956,-0.05799628966112338,0.01757098117136548,0.011603560199713602,1.0072162234774382,-0.0007738750711301912,0.0010263926442388408,4.067811341791083e-05
-0.3020291611901815,-0.45091236986193883,0.2887233124186489,-0.004058914073977309,-0.019864036687646608,-0.08123377230181814,0.020601151022435392,0.014393902998969272,0.997965098543198,-0.0004851517587115423,0.0007243634830486592,-0.00041023425644402806
-0.3194709231994818,-0.3595672249224834,0.2260786194975346,0.03433278615393066,-0.060696791336797715,-0.06344945836932524,0.022789783743962882,0.008845368155995207,1.003513871205576,-0.0002590731392140077,0.0004048925598491774,-0.0007698014813665114
-0.3053470963521029,-0.5168552875370593,0.32477454600342903,0.08799548419584971,-0.04156314346707926,-0.10457987800629613,0.021453809476044243,1.9684248592522283e-05,1.0041363782508008,6.570140678942139e-05,9.954546349707451e-05,-0.0012866567689035708
-0.37109998042694303,-0.4389894706694295,0.3416300556993486,0.11316847099311587,-0.03944275760229629,-0.11356372586118814,0.014676884157303956,0.007218594595838226,1.0016856728265466,0.0004073314624887701,-0.00027155451692986856,-0.0017256462395730005
-0.24658509012402968,-0.47280083927564337,0.16524458216739454,0.14602481705916107,-0.03279269968828581,-0.10858143733626714,0.02627481331627482,0.01536996343118703,1.0038351243797259,0.0005725760446561645,-0.0005181396070538982,-0.002198447078848644
-0.323927682810753,-0.4300746203667726,0.15100035963405695,0.10064733506861903,-0.08171804661397669,-0.13880264580893795,0.016663644328298005,0.00730036188202656,0.998552988093538,0.0007235764042902216,-0.0008420672898646512,-0.0026285216992154165
-0.17745121991930338,-0.4006538392227174,0.2646967776923709,0.13335523382887146,-0.04087884407970137,-0.1382632436293558,0.014450178584600234,0.01380365863756393,0.995122663897255,0.0009882731819825924,-0.0010195185097839545,-0.0030291755384381338
-0.039863766083071156,-0.366614817777888,0.22565575642099334,0.13715924816980146,-0.06696005338894559,-0.11275714209625023,0.022724453710213942,0.010970909506965498,0.9987155684378839,0.0012139289384035857,-0.0010593822758670258,-0.003395790356216021
-0.10360830853435415,-0.29239624354866656,0.10064859918601766,0.17888229497189861,0.007862887647928796,-0.1275480518082777,0.02408286330252427,0.008557299038731776,1.000044102429274,0.0013145775375896034,-0.00116299058440138,-0.0036881865997646884
0.0867036925958391,-0.304934977543861,0.0057944446429893035,0.11361760477973165,-0.06394941561453199,-0.0430576411288494,0.024762957734188247,0.01456574414134878,0.9943167849105091,0.0013203719822325929,-0.0010762868918055407,-0.00399312157730855
0.06811966285481214,-0.21425562241077664,-0.13049747949131135,0.15328321002338183,0.013904236861050997,-0.07766181005082408,0.02063331334429923,0.005250613943158778,0.9976758617951565,0.0011898745027412814,-0.0010081672289507287,-0.004207377199719325
0.13696691517850573,-0.13535141976355494,-0.05617734149338264,0.07858011453444388,0.006444129888805329,-0.042588477608658956,0.018113324569545373,0.009593100074527508,0.9995105549577566,0.0011336971612478988,-0.000871200313772223,-0.0043427286194828805
0.036235913355399565,-0.04962204842762401,-0.20233823910820314,0.043281209133257156,0.010850018061830266,-0.04207591988558347,0.02139728685172647,0.01779497994784692,0.9949078504101424,0.0009313589221396957,-0.0008349644004168234,-0.004392350667910504
0.27911192922858696,0.15201093066744592,-0.012864941066132868,0.032770347032008644,-0.023136442455419064,-0.006825435510988883,0.015155410697732252,0.010557651727370857,1.0027441095965526,0.0009184939810735628,-0.0005558524711882363,-0.004240339737243058
0.19704533375328506,0.12852224383140287,-0.08791821828230802,0.013179113521695467,0.03692035086368389,0.034867380849730914,0.025511546252088818,0.0132480992026661,1.000647002742398,0.0008305757627912547,-0.0003588071374349513,-0.004111817493411655
0.3035754781861236,0.19807197656922076,-0.2399614111160772,0.003864151608283165,0.005445964701358729,0.07303823788400017,0.021393011689873665,0.009803548207936254,0.9943040076587456,0.0005906143516751775,-5.5231659248827675e-05,-0.003913745516842435
0.30310854294187756,0.24523880807505155,-0.1509784607933558,-0.06741148005486491,0.04012705531238841,0.04421462099084155,0.019651795532811378,0.00885552553316695,1.000403981245819,0.0004396358908818217,0.0002478768836930499,-0.003668506708767383
0.29021058369247177,0.42291461861347024,-0.21008450412324586,-0.08199670739723222,0.05742692147343228,0.15342750865392996,0.030142712009491694,0.013982960145607508,0.99251337641635,0.00022955138675857583,0.0005380874673855217,-0.003245592090153913
0.38333978386892836,0.3376957300250411,-0.10947481179075266,-0.0956378154354558,0.05680332628898828,0.1488586900770562,0.024601411106040468,-0.003848262126446355,1.000215340271737,0.00012007657496782318,0.0009214272512544499,-0.0029078963601288717
0.2757629029353007,0.36864428969228136,-0.01933331331573787,-0.0845181790397511,0.042394190174573076,0.14615421613101187,0.013348411468295763,0.005699580377537986,1.002905802283654,0.0001007432616520853,0.001197190154189751,-0.0025392520704365902
0.2949980512467167,0.4623447762862118,-0.03264307012642623,-0.10790178194347318,0.01406443535302333,0.1268855584088618,0.022381606078216078,0.009376231341137804,0.9953568368239875,6.810019152565908e-05,0.0014921882054364675,-0.0020769072941503783
0.2655033571771944,0.5827580726768506,-0.003394419308078503,-0.23222897576948998,0.037710878419083285,0.11765736605558118,0.024301672760464424,0.011814691035711821,0.9983310601502589,6.470577221758058e-05,0.0017576915626136618,-0.001494149221473528
0.3619560873966001,0.35274052969032027,0.09867657856985845,-0.19215227604351884,0.08373889599055542,0.19731576627317868,0.021037960845069936,0.002854746065806187,1.0017743760826892,0.00016338235078743903,0.0021196476500102623,-0.0011414086917832078
0.40122314447520474,0.46350036588280463,0.14883074768270205,-0.2289593180360929,0.002754633662852896,0.13075826472158558,0.017607888957801535,0.013333941442942683,1.005935403804031,0.0003122130984701411,0.0025208707944854667,-0.000677908325900403
0.27005582108279214,0.35525607818288835,0.055560982820709245,-0.25058240994061265,0.01170375684748807,0.15328961139597624,0.02581723994908202,0.007138514333315223,0.9986236311942389,0.0003677740812908503,0.0027909266155682587,-0.0003226522477175146
0.16528213078096093,0.329634150509726,0.139579620620283,-0.18408636578642076,0.029194068060580954,0.12427685285965388,0.022261714547662355,0.007744818322134496,0.9986448433701614,0.0005073537019111334,0.0029562087463492204,6.981902792211393e-06
0.14670938799873057,0.23157540444772484,0.1821026794868912,-0.22962904043547006,-0.003479923610232605,0.0885366829091096,0.016404098321007702,0.017533574538258365,0.9970035772382119,0.0006894563813980246,0.003102918134347951,0.00023855730723993624
0.09894616123664107,0.17450837156485305,0.19691698170450866,-0.12774798484564176,-0.03237717496498869,0.05112994210874155,0.015257991541159973,0.010938275260666139,0.9940660823009403,0.0008863733631025334,0.003201864295584592,0.0004130656788047893
-0.07702789422028014,0.1426560616527095,0.30723782845201686,-0.13549783174762225,-0.09770620452591879,0.06016909200402755,0.022743166387963646,0.007448497405375246,0.996679501582356,0.0011936111915545502,0.0031248364013643113,0.0005557217404574988
-0.13521154282360837,0.08789427603715524,0.14355176621754945,-0.08179309110499966,-0.07393019358153247,-0.018178048740735468,0.02497056926058633,0.009657887521006419,0.9917360714871674,0.0013371629577720997,0.002989624858540703,0.0006436160164946541
-0.14119244372542933,-0.13506955779824492,0.11456637721539116,-0.08677762893809801,-0.06454970190843835,0.014844031454494798,0.02097182183902456,0.003813828351255711,1.0028101370299352,0.0014517293349874908,0.002848432414815274,0.0005085464586964092
-0.3155965420569711,-0.057421473340385276,0.04822087485976211,0.00830368017764522,-0.07975009288472638,0.013745549521168172,0.022904190188096054,0.0073638586401480475,0.9938926187573536,0.001499950209847253,0.0025328358727583025,0.00045112498535602384
-0.30289592490104333,-0.15085488518278695,0.07078948797795126,0.04888475233820418,-0.07282181888255046,-0.0903649705043334,0.019090145057481314,0.015398898493250514,0.9967735112848247,0.0015707396978252041,0.0022299399478572595,0.00030027010017323694
-0.38305972594644117,-0.20891774366108778,-0.1231732447196683,0.031776993411594706,-0.15377052063456764,-0.05332534125849291,0.02800228279001449,0.016223849982960958,0.9974774859698627,0.0014475664531055357,0.001846880221910818,9.135235651214912e-05
-0.5761777970319557,-0.2379999888232065,-0.07964494984093859,0.0671698400596108,-0.1493561559344765,-0.10825008778391844,0.02147168382807073,-0.0025687031652483145,0.994812071196125,0.0013679215032645971,0.0012707024248788624,-0.00014664763231105738
-0.5965491622754364,-0.28369216863484736,-0.08919373014939701,0.13571797167009295,-0.09773760831379366,-0.06695054550302651,0.02221119388485591,0.007674401501981011,1.0035652165616171,0.0012787277731152,0.0006741532626034259,-0.0004303398009459047
-0.49263238136961707,-0.25797077549659586,-0.13212966350252658,0.11935552941261168,-0.15063410382989775,-0.0716367082286342,0.022190444796644213,-0.00036554919148894683,1.0019670758673218,0.0011465981096126733,0.00018152088123380884,-0.0006883105764425006
-0.5646360753259035,-0.2651227644369503,-0.18704752153373794,0.2067428682623411,-0.13667166912606551,-0.0747193686694977,0.02191445262971644,-5.7082194723215816e-05,0.9968354325017014,0.0009595505880789356,-0.0003831151940920947,-0.000953433340879451
-0.6090854920055151,-0.2258942884293081,-0.29278481547471774,0.205145143133872,-0.11290959294743043,-0.10847565636279749,0.02377102277940829,0.01057464896862357,0.9983605012404579,0.0006667657726042177,-0.0009922006860976099,-0.001179327629308759
-0.5206105695613501,-0.21126856939683247,-0.31721494273314316,0.21056473127566783,-0.09484819106881556,-0.0021722584471935997,0.010060507838629001,0.007937032593147868,0.9994037130332121,0.00034955082987107465,-0.0015128112556589601,-0.0013905961987055915
-0.5049754600560465,-0.20912589320358307,-0.3003864937000233,0.1873631596919369,-0.07544640551983184,-0.025461055330864943,0.01530711383585735,-0.0008009662276703272,0.9940372646171197,4.9164336171051315e-05,-0.0020177867157150065,-0.0015997220919091748
-0.4061207999642149,-0.16534163793500709,-0.31723357444381656,0.23717489071116366,0.008948480806878526,-0.05550899650227074,0.02254305112232651,0.0080567714012213,1.0044930994518635,-0.00026806923827276524,-0.0024239075156792214,-0.0017650637298441817
-0.5698391186031567,-0.14546082696482082,-0.30634369276623086,0.18536536341956172,-0.04758494023237664,-0.028274300716903157,0.017253030340331675,0.007591313270468622,1.0055517425027223,-0.0005744129310389961,-0.002993746634282378,-0.0019105245568090024
-0.4798930972350198,-0.12040260748365858,-0.32521806691362926,0.26199299152959415,-0.046816676234558194,0.025281016424995605,0.0217618749188825,0.0011182840845158928,1.0091087718487413,-0.0008996309979526253,-0.003473639731517398,-0.0020309271642926607
-0.24491274064657506,-0.017810004911168895,-0.24062209455495442,0.17979884420132353,-0.041716730338115904,0.1115794357510446,0.02113490405122581,0.012674024544609794,1.0016851355660354,-0.0011402530925075799,-0.003718552472163973,-0.0020487371692038295
-0.3666366184736725,-0.014446626456382103,-0.3027127758338454,0.18339430606704293,0.019986964151461093,0.09747353345372067,0.017283947562466123,0.0045448792422669035,0.9916154760137935,-0.0014429658683414253,-0.004085189090637645,-0.0020631837956602123
-0.2537859325190057,0.12019821598449723,-0.10483713560672844,0.16119063803007802,-0.047838474656766154,0.09805418680687379,0.024477439014176892,0.0024879375588559745,0.9884390201120915,-0.0015478030039481538,-0.004338975023156651,-0.0019429855796757147
-0.12205333115115763,0.12428093117410581,-0.1010486867708918,0.10763086666841945,-0.002804538458444409,0.08303482526626098,0.017313160034111354,0.01740758715572431,1.000609837697473,-0.0016488516907190453,-0.0044610283543078085,-0.001818704648501609
-0.19577307713216205,0.3318721202107482,0.026858551883243664,0.14226453760880262,0.01871316105600747,0.10360866356539969,0.02216766977884171,0.0067157923730144856,1.0006789604220314,-0.001621993138835802,-0.004656801431439971,-0.001486832528290861
-0.027316636362260095,0.2577104531520894,0.09455166956561314,0.08103903611318794,0.04703607545022361,0.06549466479692333,0.02262477891016423,0.0013319685685784113,0.9984564123980076,-0.0015274414692701887,-0.00468411806780223,-0.0012291220751387715
-0.01581133343147323,0.24758712393088486,0.1606611306574861,0.017262388316308358,0.0585217902882303,0.0721632997258797,0.014186782126159397,0.0025951138639990212,0.9915772367589827,-0.0013667803386127025,-0.004699929401233704,-0.0009815349512078866
0.19145604441032324,0.31054964876205315,0.1620662653876416,-0.02540230558671968,0.06301478008298303,0.10612482841614888,0.019510328960102095,-6.58491684646309e-05,0.9996367045109027,-0.0012047140732250607,-0.0045084733568233806,-0.0006709853024458335
0.22809327657366324,0.22384632108131905,0.33557177314947945,-0.05591257043628836,0.08340382905394089,0.0686256528172304,0.023000594722329876,-0.0015531213683250464,1.0040565395448424,-0.0008691423000755814,-0.004280380080249717,-0.00044713898136451436
0.22490075657629915,0.3621781589707633,0.17240286801092447,-0.026838671839156076,0.10759996713705036,0.024578601653219803,0.012544458398241294,0.005259017894560891,0.9948467474832537,-0.000696739432064657,-0.004055479323673418,-8.496082239375108e-05
0.2776040712275369,0.2785653964507545,0.383934198042128,-0.04473870100576725,0.046219621023764,0.03613902293745211,0.015085418650908207,0.004773829164924732,1.0007490628708005,-0.00031280523402252893,-0.003777875252445881,0.00019360457405700343
0.3281687735053998,0.19757417497261787,0.32177864379288323,-0.11512661356103346,0.12363223864992087,0.0065917498511182376,0.013824146245426888,0.010592550171422336,0.9916548069078598,8.973409770354323e-06,-0.0034497064789404813,0.00039117874902962137
0.28483887938841324,0.21321336691020784,0.2574774996152155,-0.09941624748177506,0.04074401404957609,-0.007105770979236923,0.02505739764062662,-0.0012410864702994263,1.0012290118385823,0.00026645090938556983,-0.0031648675995520677,0.0006043921159398292
0.5331733039505818,0.1891039450445865,0.3611317088197378,-0.10312301384155192,0.054955709849590674,-0.019588056112424652,0.019883649897683625,0.007402913163786126,1.0000581603419008,0.0006275826182053076,-0.0026316942956014864,0.0007934960609844156
0.5382529596758392,0.13107127676147173,0.32914048270709645,-0.07495556367261594,0.08274899627397443,-0.015715683554773256,0.024524879287922245,-0.004208144306216751,1.0052647659923266,0.0009567231009124039,-0.002093441335925647,0.0009245673377458875
0.5883193326971182,0.039988270079126545,0.1673606434238476,-0.07020497265740201,0.06043408117566034,-0.09325126990403818,0.01656053564671646,0.001559686699735815,1.002594294286731,0.0011240837443362516,-0.0015051220032285288,0.0009645556078250139
0.6188600650482879,-0.2066281909367625,0.3232220512695695,-0.1039455202802703,0.07887068097569697,-0.08698634347882539,0.026603564761860182,0.0033690064701559622,1.0030232170984108,0.001447305795605821,-0.0008862619381802407,0.0007579274168882516
0.665613676517244,-0.19812200091834034,0.09261276146511072,-0.04705551879867351,0.09117017790075017,-0.07632039436680917,0.016701212081758343,0.002111667236264056,0.9991694791886274,0.0015399185570709316,-0.00022064826166299668,0.0005598054159699112
0.5161484987628873,-0.2131712116506487,-0.006812769612983556,-0.02790795228424546,-0.0061758536495027895,-0.10670250250550635,0.011218057420399812,0.0005921962888027482,0.9979353095940962,0.001533105787457948,0.00029550023709989064,0.00034663420431926253
0.5095098488907205,-0.3518380886970728,-0.03916635427710982,-0.03200467440120765,0.013868570897232585,-0.1278810876511991,0.011250684021575405,-0.003503041910953436,1.0040245771928693,0.001493939433180838,0.0008050100859906111,-5.203884377810276e-06
0.471280281650464,-0.46286146225967295,-0.16320175322836544,-0.023731495755223587,-0.058734651995691486,-0.12302948618256908,0.015047891927693959,-0.00471248655946163,0.9986078466785503,0.0013307376799524728,0.0012762903676410752,-0.0004680653466374832
0.5045889279500739,-0.5192971727031379,-0.18081484293201963,-0.016568439925754873,-0.0027519326701215888,-0.11080422119040109,0.01739700637058221,-0.004264121514213326,0.996303582827765,0.001149922837020453,0.001780879295591149,-0.0009873625193406212
0.37037781396134084,-0.3586825780496872,-0.2561993345369959,0.1085735655334037,-0.004768197419501765,-0.09821122129059466,0.016763932625813313,-0.0017854859593864026,0.9996503299934456,0.0008937235024834572,0.00215125710955249,-0.0013460450973903084
0.46176725386028317,-0.5930440235575334,-0.10288773207878373,0.09520849385565125,-0.04713658306050865,-0.18889626306453278,0.01760893144547441,0.0007165807374986502,0.9994255997022509,0.0007908357704046734,0.002613024363412773,-0.0019390891209478418
0.2966490259751833,-0.4650295263658223,-0.18985437643487435,0.13550436991434364,-0.027030932884037392,-0.13085547163464242,0.016153599760027854,-0.0034399055039704626,0.9932282961386363,0.0006009813939697991,0.0029096733893879565,-0.0024041186473136643
0.33172565193106557,-0.5444586818553917,-0.1995316999233848,0.07359067508812063,-0.039282660012901593,-0.07566460760443215,0.01999362000846193,-0.0007997156229901803,0.9973738968430909,0.0004014496940464142,0.0032413990413190223,-0.0029485773291690557
0.17198187019181352,-0.3897357345548178,-0.26095871906155743,0.1313997708162327,-0.07340923812039277,-0.01197854370580667,0.009636681560984121,-0.005411654091802638,0.9927697093582646,0.00014049097498485674,0.0034133809115108357,-0.003338313063723874
0.10119619727429466,-0.36321910834659243,-0.19063525873269935,0.15636367006176535,-0.05047619852953071,-0.010557059324801955,0.011948636820381553,0.0021788145941231607,1.0060884330350726,-5.014428374784261e-05,0.0035145771087851303,-0.003701532172070466
-0.04663862935662876,-0.23737290283934848,-0.22884587078117025,0.14764092954395558,-0.09894110421851889,0.018220404549817368,0.03211756516064518,0.0009660125294484742,0.9845733850180468,-0.00027899015452901286,0.0034679384794285015,-0.003938905074909815
-0.11957112248315317,-0.24100942154812535,-0.141734024983131,0.13333941773723332,-0.07843256794811337,0.06325131113410544,0.020518665799043486,0.0012412555694458981,0.9932857115784202,-0.0004207241795121439,0.0033483673569453484,-0.00417991449645794
-0.09609761436377508,-0.1491595997517351,-0.0890790082264222,0.1468266837783792,-0.05631998057988567,0.08250212569286457,0.010082934700045152,-0.001230937171952321,1.0046853464515384,-0.0005098031877385662,0.003252269742581573,-0.004329074096209675
-0.20430587652809826,-0.10171836870404297,0.0797886913503923,0.09243124223423192,-0.05674380347856297,0.13917715454747148,0.01699620673625102,0.005456487370706699,0.9983117744461196,-0.0004300144963881739,0.0030479638660534745,-0.004430792464913719
-0.14048085653403924,-0.1795217459585432,0.023848689153468987,0.10350872319695056,-0.058444339466562835,0.14513582685935084,0.011710952939200088,-0.006213676622753047,0.9954468679600565,-0.00040616580723470486,0.0029074830095194354,-0.004610314210872261
-0.16392458381534541,-0.04412212517090817,0.19524687555035056,0.06581124024332398,-0.04526756937574573,0.18094690304995606,0.020040621951747654,-0.000656641801855401,1.0064032293497,-0.00021091893168435433,0.0027435584257040897,-0.0046544363360431695
-0.37878910831589935,0.24328352782733664,0.05376040365611871,0.11232114541768995,-0.05313019162306508,0.09311499021808901,0.015662350652783905,-0.003486829159774972,0.9937382578557242,-0.00015715852802823563,0.0023647693173881905,-0.0044111528082158334
-0.2825197243746666,0.18414139005124108,0.12025905054276534,-0.0018258428353287795,-0.031753444785865156,0.1876468482810627,0.02222193577189118,-0.00415770041603185,0.998553828951578,-3.6899477485470264e-05,0.0020822495930135237,-0.004227011418164592
-0.3099744748301919,0.2116991976668615,0.21145911547191365,0.0074973379870056575,-0.04351040567743037,0.1432274202267048,0.012515258401642049,0.004029500558065208,1.0104354779880895,0.0001745596379864434,0.0017722751181833318,-0.00401531222049773
-0.30374166985368717,0.3432580349257274,0.17905641160719174,-0.063313510922643,0.0032098956929972836,0.15152567302827769,0.015565921996097042,-0.0016391068484570685,1.000390510178255,0.00035361604959363514,0.0014685334483296444,-0.0036720541855720028
-0.38830535631696556,0.510088396895912,0.15915275887793998,-0.08665711734063958,0.025952087021785877,0.08689259955750199,0.024092011415630516,-0.008611652200309634,0.995366859938536,0.0005127688084715751,0.0010802280920126789,-0.003161965788676091
-0.26228691555119077,0.47512702325355305,0.17274770706032466,-0.1444586448201425,-0.002107554988750009,0.09949867495586463,0.021016231036942123,-0.010809293483976894,0.9956866056657633,0.0006855165155318999,0.000817941176461488,-0.0026868387654225383
-0.33937683659851603,0.5175133528551115,0.10428691334411748,-0.12581396384515486,0.0215210525380448,0.10344521341404146,0.021889802342529865,-0.004897643394999175,1.0032123590985107,0.0007898034288760174,0.000478564339862972,-0.0021693254125674266
-0.3113449285037479,0.49890316869321805,-0.054808894881510334,-0.19323212755468228,0.00869801840348894,0.10288660440071301,0.01845696584284502,-0.0059215024257321105,1.0064645979032874,0.000734994533994507,0.00016721941135922408,-0.0016704222438742086
-0.2741282952813214,0.4678131569844104,-0.108921691398877,-0.24494375139157837,0.06608924644526383,0.08900969667970067,0.026196017009499542,-0.0061234394251729685,0.9913744539317276,0.0006260728425956301,-0.00010690888392209731,-0.0012026090868897984
-0.08668087239205036,0.4154026690526835,0.12249120014974768,-0.1681534517174208,0.0808472794355806,0.021657534986106706,0.018604290628554305,-0.006754062755424255,1.004736667096718,0.0007485640427453777,-0.00019358975631414768,-0.0007872064178371148
-0.03116055428948504,0.4816054447814024,0.02050754733987452,-0.22231945802265404,0.07171207118781213,0.06631773072756919,0.017968317612433168,-0.009955676774183546,1.0070410888870645,0.0007690715900852522,-0.0002247503106036327,-0.0003056009730557124
-0.2044635841367344,0.30563764981578856,-0.08177851905494771,-0.15867680510726334,0.09026758060092979,-0.0305195445608474,0.01206600680824385,-0.004814562499929394,0.9964719683739467,0.0006872930710303045,-0.00042921389474036715,3.6676760076181926e-08
0.036473282494944394,0.16596945106276773,-0.16635217039526437,-0.2063978874331852,0.09579146095065844,-0.10030339481065466,0.013058809072354464,0.0027883287527276073,1.002874274775909,0.0005209409006350401,-0.0003927406122454227,0.0001660061278228439
0.06417658842886152,0.21924448196557547,-0.23782676287817922,-0.19240243879340846,0.07565066556687619,-0.00644863062573719,0.022973128991059362,-0.005264092872376487,0.9991945015112685,0.0002831141377568609,-0.00032856402381656113,0.0003852506097884194
0.16445477608906936,0.16556663276230202,-0.2343217377202037,-0.1833120525298356,0.1095793246552184,-0.09024567733399895,0.012425271120810284,-0.008122826414888621,1.0026063966148835,4.879240003665714e-05,-0.0001641092477274918,0.0005508172425507215
0.13792852168528044,0.0844929188154194,-0.34973402727374325,-0.11740372660875924,0.05298987345273173,-0.06906285950434926,0.015295457561018513,-0.006898673331444975,1.0078811016385718,-0.00030094162723708615,-2.6180726042211334e-05,0.0006353101613661409
0.09974133271308823,-0.017920606495826018,-0.3347001650026211,-0.12333066000378176,5.870596915492302e-05,-0.03804828683947715,0.022616664273475272,-0.004685462312241928,0.9918800098751176,-0.0006356417922397074,7.35606066708769e-05,0.0006173895548703148
0.1997167000716619,-0.11934527395655185,-0.24172308360022315,-0.04664254929084965,0.02844960003058773,-0.051547191526632,0.022263214598363716,0.0006034406270388343,1.0016109570567306,-0.0008773648758399304,0.0002732773067425388,0.000498044280913763
0.3445946347152915,-0.14225493319982632,-0.2323233062327161,-0.010885213055047608,0.025022955327886637,0.027649095421282237,0.012517156902339333,-0.011722964629375448,0.9918055583528588,-0.0011096881820726466,0.0006178719414578304,0.0003557893477139366
0.35864537350644804,-0.17923263357231883,-0.25531179310869456,-0.001829005250297019,-0.04709318720307248,-0.0778322427397961,0.022094801260651664,-0.01253012532307097,0.9952560530573523,-0.0013649999751813413,0.0009765173149642783,0.00017655671414161772
0.23018676787775472,-0.14949310211568717,-0.2523369124426585,0.05738981376519662,0.041747392999845714,-0.02481870898240609,0.018318529789435586,-0.0010938204147277726,0.9953993909079762,-0.0016173368876239995,0.001206704082842033,2.706361202593055e-05
0.3687271875837196,-0.2697516014282391,-0.08199190459714785,0.07674057196662598,-0.013569264948217866,-0.03943222266094715,0.015325625064326656,-0.0020360707885192335,0.9853080330712745,-0.0016993287922211474,0.0015754312704257525,-0.0002426879894023086
0.35919201400612044,-0.2189656202208352,-0.1549090897373142,0.13511409741016647,-0.052479820175583315,0.0034317271684547023,0.019999605597155128,-0.010442084386506203,0.9958846739492802,-0.0018542378819584615,0.0019346232844318731,-0.0004616536096231438
0.3564890135524007,-0.3386421713077435,-0.016026461829958212,0.19086502331290653,-0.03505616857446632,0.011600682062546552,0.017072087845802143,-0.003733093030090435,1.0046381106073616,-0.0018702643437884196,0.0022911122979842736,-0.0008002957809308874
0.2205543945196849,-0.29090408313384514,0.16436513113281054,0.2074557813141027,-0.06463335326789316,0.01026507584708857,0.015956722998851175,-0.00598964987737364,0.9990332183466105,-0.0017058992126556091,0.0025116666925039588,-0.0010911998640647325
0.28632255066739337,-0.17512960139139938,0.1230431633501051,0.17875667571787965,-0.06760693928441516,0.08304533517422065,0.01404673981992121,-0.00859671961459123,0.9983975617517512,-0.0015828560493055044,0.002797989243171352,-0.001266329465456132
0.2299192804890011,-0.23013090944832293,0.15831464160635508,0.18708437650243154,-0.06524932958763367,0.06643034391314419,0.01288018758662916,-0.00767616554817557,1.0013211567615206,-0.0014245414076991493,0.003027908523660353,-0.001496460374904455
0.16991484773486884,-0.15575651204789331,0.13397533052350238,0.2339287324905512,-0.07624793606369858,0.06677188219663832,0.018545478180193038,-0.005538423178266811,0.991072085967297,-0.0012905660771756469,0.003197823371395222,-0.0016522168869523481
0.21682472687265247,-0.2343870694246979,0.2925505306213534,0.26749282720940964,-0.07450939775543358,0.07667894207011659,0.022643929641042004,0.0038534854149372116,1.0026893821725347,-0.0009980155465542935,0.0034146480982678745,-0.0018866039563770463
-0.050245532930781114,-0.06335481158133116,0.2243895469139206,0.2264807124844135,-0.0897149985527956,0.10592144568112222,0.007752626010453657,-0.0037626810465371686,0.9884630157621215,-0.000773625999640373,0.003364402565337094,-0.0019499587679583773
0.04286757192802058,-0.003618339076130836,0.2058894039430759,0.231880641949732,-0.09948904931882722,0.12771617057775023,0.012534274373039379,-0.005459829168050162,1.001775468935559,-0.000567736595697297,0.0034072701372651146,-0.001953577107034508
-0.16430506187028326,0.0003724711966950761,0.2936642488992564,0.16052184650422235,-0.12353316838472936,0.07878878642045355,0.013771682345942383,-0.005268918182141822,0.9990905242583927,-0.0002740723467980407,0.0032429650753948306,-0.001953204635837813
-0.13652672276659616,0.1973955152955548,0.2781479963525249,0.14590843428554656,-0.08884353534630306,0.025123445437836726,0.006849597086248188,-0.014986103032300366,1.0008191295548032,4.075649554484251e-06,0.0031064383526282348,-0.0017558091205422581
-0.2816843272005195,0.14989918058186694,0.23787131263835246,0.13783064877190004,-0.10716520130936102,0.05544139486964701,0.004312761902759248,-0.007081302602734584,0.996438380983262,0.0002419469621928367,0.002824754025427715,-0.0016059099399603914
-0.22778156220319512,0.14774633011085664,0.2464789149214914,0.09556622923738865,-0.08681975959715721,0.0037965804984855505,0.01917976631547552,-0.013011195098902067,0.9878468437919958,0.0004884258771143281,0.0025969724632245203,-0.0014581636098495348
-0.3759891493146201,0.2557233963916231,0.21346717741243734,0.0465976045128382,-0.05474721037894423,-0.0055926190266440984,0.009696063180158334,-0.019384108252672415,1.0007960368148663,0.0007018930545267655,0.0022209833139099004,-0.0012024402134579117
-0.4887691843259558,0.32379904636347334,0.18433357729648248,0.08303201289370564,-0.06546332834228419,0.034770307280306334,0.012219744102057287,-0.003731543155500736,0.999043480653393,0.000886226631823248,0.0017322141295839444,-0.0008786411670944383
-0.41915164046289805,0.3558639654215212,0.1361953519906261,0.02695847670327889,-0.06523187845486207,-0.016943160610117136,0.005888911936230002,-0.014087421835438822,0.9964979131167296,0.0010224219838138738,0.0013130624891210464,-0.000522777201672917
-0.451623891779094,0.2989112567662699,0.11317270397392022,-0.010216750868979555,0.006054483777821322,-0.06327640095617242,0.013638933175389098,-0.018832395758069387,1.0007455745672729,0.0011355946877877944,0.0008614385973419523,-0.00022386594490664708
-0.5297771986428496,0.21675167945088852,-0.04546382214166441,-0.03030228045905286,0.014942788063392765,-0.06341376482349755,0.01777402232748073,-0.012948135730933279,0.9888501788181943,0.00109013086564613,0.0003316613986991027,-7.1142654557585506e-06
-0.592748492093842,0.3476030946520154,-0.04650211984651138,-0.08680139916500272,-0.029851955950010323,-0.12993368284946277,0.01343263832348668,-0.01869007357552479,1.0009175703818574,0.0010436287457996185,-0.0002610870933947393,0.00034048882919625686
-0.6999719120178913,0.18781382183718684,-0.24902241909581274,-0.13532833438326286,0.014239252789276253,-0.141454817105342,0.01870892232618588,-0.0008576172453262938,0.9961791865453122,0.0007946063267038057,-0.0009610590054126306,0.0005283026510334437
-0.4929056949817003,0.12424169462982645,-0.14377543469454573,-0.1251424618611925,0.023951759529077868,-0.08615893388909306,0.017920782210577364,-0.0029113460471440755,1.003605001751032,0.0006508308920092601,-0.001453964700394331,0.0006525443456632702
-0.49969857586577593,0.14262169607878192,-0.1941439348604128,-0.10552492986687738,0.017049816012513725,-0.18311756755828978,0.007212467810769606,-0.012554485976605023,0.9975643634544087,0.00045668695714884725,-0.001953663276260107,0.0007951660417420521
-0.5112391877257827,0.09268530534199529,-0.2866620934454427,-0.1374086793858304,0.048019702486019264,-0.1580323034324356,0.01681928926669244,-0.010888904528401114,0.9957772341010669,0.00017002486370340454,-0.0024649024639858894,0.0008878513470840474
-0.6487845371865792,0.03888304692168658,-0.21630343507991512,-0.11190430083854204,0.06434193279952834,-0.15629850194969352,0.00926798375700028,-0.012392436173754367,1.0002189641908787,-4.627857137651059e-05,-0.0031136870011724688,0.0009267343940057339
-0.4833446579372101,-0.09668036077263598,-0.1931525246938407,-0.11238026145193651,0.06397994950232112,-0.20534891061164137,0.013999195165361234,-0.011442668515067398,1.0044504225182886,-0.00023943109607035132,-0.003597031659109679,0.0008300540332330979
-0.4214658430131137,-0.1696977021362793,-0.1160680685750024,-0.0967227776605548,0.06855573543720804,-0.08699924726554882,0.010125029023075046,-0.014889045801343578,0.9956284553797127,-0.0003554991646453537,-0.004018497502122792,0.0006603563310968187
-0.45760668659460035,-0.10899576940590384,-0.11258664122784295,-0.012227363373156636,0.1121153880629654,-0.0413145025606867,0.012910604213299547,-0.012799360846526305,1.0012702714349198,-0.0004680858058731967,-0.004476104188717392,0.0005513605616909148
-0.4040037023209362,-0.37112481838079014,-0.08631831122641628,-0.07279379862607964,0.05992717099168037,-0.08808250160967218,0.009280969988116563,-0.019766646699417783,0.9968036082081706,-0.000554404117099613,-0.004880107891038328,0.0001802357433101246
-0.21676747406136615,-0.33725047419990145,-0.08415812985945,-0.03698533315358956,0.09966990310739858,-0.04683875253013712,0.01336767550504417,-0.016378942976197214,1.002888924361532,-0.000638562246959063,-0.005096875365099694,-0.00015701473088977687
-0.151283903022375,-0.30698087997419055,0.10068244729723716,-0.00652409592926846,0.11226458024629725,-0.022417836141405113,0.010770455350472,-0.005609516870794645,1.0019444474790151,-0.0005378797996618258,-0.00524815926812207,-0.00046399561086396746
0.027777523661042927,-0.513813654843523,0.2441613808315763,0.0756730869239856,0.08439600803016042,0.055469372834512545,0.012372742918286942,-0.003934978968471994,0.9970947517655072,-0.00029371841883024945,-0.005220381744461027,-0.0009778092657074904
-0.05328126870026031,-0.43700463115543486,0.1087972138891267,0.0394285557163395,0.07459319840213377,0.02959310079784204,0.013369308135338036,-0.013407672436388298,1.0006600341480656,-0.00018492120494112275,-0.005273663013161288,-0.0014148138968629255
0.14273499839386208,-0.45929545599690813,0.1437564484491455,0.05972166383422777,0.03740588564860547,0.049343917477091735,0.020774151079691744,-0.011562416387565536,0.9968425441359943,-4.1164756491977236e-05,-0.005130928014767426,-0.0018741093528598337
0.27331540230796963,-0.4861514747597896,0.20618452669618872,0.16797957952035295,0.06427484397442927,0.052399857495154495,0.018640720342226302,-0.013219464417448713,1.0012183502112793,0.0001650197702042115,-0.004857612612459456,-0.0023602608276196233
0.28302353730465585,-0.4897912906996288,0.09641424495068285,0.12659147755830552,-0.014538011951557576,0.09026171162899929,0.014615599975018038,-0.022188134234755928,0.996006292510454,0.0002614340151548943,-0.0045745890751548,-0.0028500521183192525
0.4075009186152577,-0.38323146739700953,0.11825381516086587,0.1804644534605679,0.03602498017197391,0.17643114078360958,0.006287539846575631,-0.015784363640093252,0.9920157828390052,0.00037968783031576024,-0.004167088156539543,-0.003233283585716262
0.46141161940592373,-0.20263043481374257,0.2135901943519713,0.16536881520786686,0.018293593194848044,0.1326818481020678,0.007491432711841618,-0.01837647086225755,0.9915170940912625,0.0005932780246677315,-0.003705676537133619,-0.003435914020530004
0.46466124725932756,-0.329618483576963,0.21307672639942682,0.09867417442137615,-0.020378806963906298,0.17575373563559252,0.016187585545456615,-0.014183629585386267,0.9976639255278537,0.0008063547510671582,-0.003241015289874291,-0.0037655325041069665
0.597125966777148,-0.2193277880520303,0.11163401013489363,0.1363873407928376,-0.046059374335987516,0.10206720688139696,0.013997127041860598,-0.015970355505511492,1.003283470777783,0.0009179887612020519,-0.0026438893230971436,-0.003984860292158997
0.5751442576925756,-0.21550408556027772,0.08923243993281602,0.1403152751855856,-0.06705358780757706,0.13386119887508133,0.008787633395195787,-0.023192912879813465,0.9945647112252037,0.0010072212011348679,-0.002068745065404568,-0.004200364377719275
0.550726291723003,-0.024991407131255403,-0.00558700899500322,0.13627696642316864,0.01833432044250735,0.13950068796058032,0.021124989396225306,-0.01695176128925782,0.996261241576773,0.0010016341921398647,-0.0015180187736815647,-0.004225355784850531
0.5707529394556311,0.03455251886834289,0.001020707528610415,0.1228179945204749,-0.08859431931802973,0.18343596466691067,0.004913173667991968,-0.025350958966797822,1.0002086343323715,0.001002654899668475,-0.0009472658342259336,-0.004190803265982188
0.6293847272867459,0.0724638456012852,-0.1228605433675666,0.06581406734332071,-0.08570951941612749,0.11060828375656336,0.012857199598498379,-0.016132145478287084,0.9918299757926186,0.0008797943563009085,-0.0003178811069391877,-0.004118339420380903
0.6804444856051066,0.004514441867177921,-0.1679113665255722,0.01537495181721657,-0.08776599587739094,0.1418314274409829,0.007906499632542075,-0.01753750892712071,1.0034387426766476,0.0007118829897753363,0.0003625633786659189,-0.004113824978513726
0.49302859922115616,0.3029473632215252,-0.01111243809097745,0.002956095279319646,-0.05113467675492497,0.0790065150775586,0.019030358815471552,-0.0203046689787662,1.002034249779822,0.0007007705516843588,0.0008555919778870752,-0.0038108776152922
0.4635243577790669,0.2985750455829028,-0.23286281286003643,-0.07436361351292833,-0.07100578278732053,0.0446875270301043,0.0075477501650505095,-0.01539935989107459,1.0021126925444224,0.00046790773882432235,0.001319116335666142,-0.0035123025697092972
0.47368912882106906,0.3952521415604004,-0.31017082697080817,-0.09146420480003742,-0.066959794827656,-0.0023721605134436833,0.007339326993024272,-0.02053644271739495,0.9965595895118008,0.0001577369118535142,0.001792805464487211,-0.0031170504281488967
0.33711954180421794,0.36282150769569604,-0.2596372691767466,-0.09268519065995434,-0.06284777233190189,-0.006938387942674004,0.004030694909515967,-0.019165715155077798,0.9943656994005592,-0.00010190035732323244,0.0021299250062914287,-0.0027542289204532007
0.43397180367570987,0.404495955545414,-0.4005933285800804,-0.15275180526429863,-0.07262069805096211,-0.07741747667532604,0.011252860703310132,-0.026809301726064244,0.9914002627882147,-0.0005024936859033129,0.0025638968099671385,-0.0023497329649077867
0.25545683719996454,0.4711141874257259,-0.39535651290906715,-0.1606382611301083,-0.0005755194390088302,-0.048601685965051676,0.01478163562268363,-0.010015925489520188,0.9945189822258915,-0.00089785019881238,0.002819353647167103,-0.0018786187774820608
0.20269125248833364,0.368728755160639,-0.3487707108148536,-0.10903697144007841,0.019326900554944224,-0.07434190309190923,0.010624975541131721,-0.013887032341644463,0.9906494848580353,-0.0012466209096272337,0.0030220448996554367,-0.0015098900223214217
0.08703137776252437,0.4483642691727515,-0.13761506900367343,-0.2255427880492749,0.030154565547860373,-0.06835753052679426,0.007013704423985584,-0.017793339504725624,0.9887758793680522,-0.0013842359786309072,0.003109076277417961,-0.0010615257531486702
0.005560259363935838,0.43416007820283764,-0.23233454175522958,-0.18300195671261738,-0.040438305925460556,-0.10266028307451987,0.010922706009752575,-0.015155355257532395,0.9957558579015381,-0.0016165705203861369,0.0031146365367818968,-0.0006273656749458326
-0.07172113017155474,0.3587904192217211,-0.13721884545143517,-0.22357963358288205,-0.02428880125432488,-0.053706577336300694,0.014923548181893625,-0.0084847549238457,0.9955075266464273,-0.0017537893658375718,0.0030429154066103424,-0.0002685752557241114
-0.15951007506241216,0.3405902936443851,-0.11254837656325732,-0.18181375524150578,-0.0188898028804851,-0.06724003848840962,0.010698733669629696,-0.016985270053721344,1.0054226231332706,-0.0018663377424008292,0.00288340533154793,7.20150379202737e-05
-0.13523268060558633,0.2548302807361371,0.049875463708094744,-0.15120977611243816,0.021394573726144884,-0.06676175670539676,0.010516924641523418,-0.027126775162742096,0.9841353456642505,-0.0018164622786927345,0.0027481726509423435,0.0003268453186564108
-0.17060640483082357,0.09676413418139511,0.007490006585645248,-0.15320977290677879,0.0355510051830369,-0.10354306398109467,0.008726371884872398,-0.008380223170250755,1.0019968160385686,-0.001808972272107089,0.00257756624611152,0.00042360945283780597
-0.30661386059899864,0.1096585028001881,0.04452315739627856,-0.12431874559138535,-0.010751050256278701,-0.04225653215506456,0.013532996333248636,-0.021690597598391433,1.0001716221470542,-0.0017644491147108107,0.002270952385512521,0.000533267955637994
-0.41354613812782803,0.1583571585151144,0.20313770496254635,-0.12349560394409252,0.037340294520082036,0.036842400504721234,0.009828512070186524,-0.020663702708184305,0.9944264605000778,-0.001561311409748264,0.001857406247384693,0.0006916251141531085
-0.21346061279843997,0.02332463839267971,0.177524450366182,-0.07360090429530633,0.07333544083332856,0.00013943774798644108,0.015007456460663947,-0.01644356848071067,0.9994447963139172,-0.0013837869593820822,0.0016439456345862529,0.0007149497525457882
-0.5007572524388613,-0.20439330039998593,0.24830790594812285,-0.05501952657672718,0.08388025437980515,0.06133373753337924,0.017030317206558825,-0.02451508577882405,1.0032563448496203,-0.0011354790534339593,0.0011431883821473915,0.0005105564521458023
-0.3625775520846799,-0.04697164001404762,0.2900141157848889,-0.018786284093137012,0.034223831181965744,0.057168849141880446,0.004780256473459475,-0.013537529433369189,0.9901278687679976,-0.0008454649376490706,0.0007806108300627118,0.0004635848121317546
-0.35469146367025506,-0.2315923219646546,0.32403707238778995,0.03613954002289297,0.02857248526345579,0.03637832948138227,0.00887063906588587,-0.0190195267911873,0.9899038013647541,-0.0005214278652612806,0.0004259193663924566,0.00023199249016710004
-0.2797065270088265,-0.21809193501330743,0.32192935354265867,0.0729969839362426,0.05149411255615786,0.07989451600691125,0.008763033702037078,-0.019170403272586678,0.9984763603676429,-0.00019949851171862181,0.00014621283938363018,1.39005551537926e-05
-0.24548173050146072,-0.17509266289734532,0.16748858828709526,0.12783925075378919,0.034566408969425956,0.07549003071212544,0.013938069991432201,-0.01955627142093498,0.9980422592312147,-3.200992343152656e-05,-9.926889111783057e-05,-0.00016119210774355274
-0.21823348537096504,-0.24932441945548625,0.18698374752167665,0.1459334375200977,0.0684161310213026,0.1484062609444892,0.012880570394505226,-0.017489777376410415,0.9993117269563642,0.0001549738240901501,-0.0003175023764887956,-0.00041051652719903897
-0.2394296677117017,-0.24679671196053463,0.16845580058530232,0.17018811453732333,0.05758785409211942,0.1013159806276142,0.008734783702562275,-0.012929297712824358,0.992210481062792,0.0003234296246754525,-0.0005569320442004973,-0.0006573132391595737
-0.24158248660903697,-0.1377133119607149,0.22155761477955446,0.18241914285716573,0.05905927425722848,0.09199732531056594,0.013423525436530186,-0.025365578349445004,0.9972071892330507,0.000544987239455007,-0.0007985145308095344,-0.0007950265511202886
-0.24258462534469655,-0.21173178814377383,0.1781627367338427,0.26897852814432033,-0.026641846928933368,0.00879555200256763,0.014695390462321097,-0.020540084764876433,0.9924655395883839,0.0007231499761888496,-0.001041099156154231,-0.0010067583392640625
-0.028146415737495586,-0.21074175258190947,0.07487526410046087,0.2304960672968981,-0.030712663485337487,0.10056186601910869,0.007038620149891523,-0.024930570754565166,0.9900989673868272,0.0007980252402893105,-0.0010692455718917264,-0.001217500091845972
-0.19376940783027674,-0.2784422614214427,-0.08090383527468537,0.2005529758518153,-0.021488958715517634,0.05537508864224155,0.015169438695228882,-0.02183351390738637,0.9931898221216926,0.0007171214050146251,-0.0012630149797220032,-0.0014959423532674148
0.008321457474650157,-0.17041266857992032,-0.0032807543895875813,0.23295616853682302,-0.09507805137821246,0.03779077180432392,-0.0008610526114656014,-0.019910250784015458,0.989395900871848,0.0007138406506250374,-0.001254693522247353,-0.0016663550218473351
0.06631460118554452,0.05316015190329418,-0.008510594649121517,0.2228542971626123,-0.03054160440411019,0.002917097113223641,-0.0010147165197125305,-0.022635152878409545,0.9839881095628854,0.000705330055975916,-0.0011883789210618088,-0.001613194869944041
0.08688864079993222,-0.06727266028555429,-0.08208786809781386,0.22588820114089034,-0.054210098723204765,0.03871867586899255,0.006397898589784691,-0.014773366469855906,0.9916668024173725,0.000623242187878102,-0.0011014902802618763,-0.0016804675302295952
0.3253347979215788,0.14271282406520108,-0.09470098590959647,0.22594738053378272,-0.03223789577132505,-0.009683192206765194,0.009811510756762402,-0.015631099044618953,0.9883511098402181,0.0005285412019685056,-0.0007761554823402974,-0.001537754706164394
0.2542441597598766,0.004577856229171298,-0.2615662349601795,0.13099237586262255,-0.059163083263249996,-0.06357014643101548,0.005089559028272106,-0.02872597693883197,0.991705745935782,0.0002669749670083261,-0.0005219113225804209,-0.0015331768499352227
0.20799447986305636,0.07849780598367874,-0.21363815520083582,0.1303680652983391,-0.07477559380954873,-0.08658813034284299,0.007223508752012746,-0.021510767083632133,0.9878291289966247,5.333681180749031e-05,-0.0003139168427173645,-0.001454679043951544
0.21939026031099204,0.060289977769834524,-0.06667921687319088,0.10346096813348615,-0.10195285080784078,-0.08834317166060403,0.008517229349651392,-0.024116661302721065,0.989760618981651,-1.3342405065700571e-05,-9.452658240637243e-05,-0.0013943890661817094
0.24233834683687372,0.26185895731958164,-0.22022599277500593,0.005271730397890893,-0.09003047410245464,-0.11815412965601706,0.002714377685990239,-0.02411457357022671,0.9950434716891244,-0.0002335683978407065,0.0001478117644305013,-0.001132530108862128
0.2571413507972236,0.23230812371679305,-0.1330528085675013,0.059947268173153836,-0.049145443383939086,-0.18264761695074408,0.010394258295350182,-0.01785060206895954,0.9953473646428309,-0.00036662120640820777,0.00040495311522772493,-0.0009002219851453348
0.33136012018544886,0.2102205821441441,-0.2107610824467513,0.04817485885038471,-0.09765129338474085,-0.06761929128030723,0.008865550022288445,-0.026843330816906867,1.0028739428257285,-0.0005773822888549591,0.0007363132354131739,-0.0006900014030011908
0.30480988988657587,0.21805405794077468,-0.10608015180218226,-0.06554311562539464,-0.11999130132833861,-0.16744621323131495,0.006191532184838277,-0.020593006127078102,0.9912699981397771,-0.0006834624406571414,0.0010411231252997499,-0.000471947345060416
0.4662767501879528,0.26786120412389386,-0.09751898912974472,-0.030212099018585327,-0.09416110990507623,-0.19036386683181045,0.02210748636049907,-0.022650841353507017,1.0020552395562912,-0.000780981429786886,0.0015073998754877027,-0.00020408614093652216
0.33316690744089683,0.24734209360037426,-0.03503785469387222,-0.09360224522480971,-0.05854859391960922,-0.09635862944107725,0.002094305027001915,-0.019769146777794136,0.9959707417134158,-0.0008160192844807583,0.0018405667829285992,4.32559526638521e-05
0.23602123239215758,-0.08500919607860433,0.10791077386054936,-0.11156166606178733,-0.05510563367533107,-0.11745413140628448,0.003393388564710797,-0.016097379958656507,0.9879799211695577,-0.0007081085106202089,0.002076588015320757,-4.175324341475223e-05
0.12794840534850516,0.21282256111890263,0.17224824676188588,-0.12387506185076995,-0.043834774369482264,-0.07282990926394405,0.01422468296743859,-0.015378640323322767,0.9982449522439261,-0.000535860263858323,0.0022045364206692624,0.0001710693177041504
0.15529188010375783,0.16124659181450623,0.2231302192943653,-0.12403008580697647,-0.044051349227668665,-0.0836286699585889,0.0039757218940965,-0.019879715384635545,0.9937049903395907,-0.0003127300445639577,0.0023598283007730202,0.0003323159095186567
0.03168435717303121,0.07329380347082273,0.14923119639619212,-0.12813495745720932,-0.027783240100355724,0.03023382466518578,0.008951623509441804,-0.017130613591099728,1.0019467553758807,-0.0001634988481677656,0.002391512657946052,0.0004056097129894794
0.03616652069739351,-0.01702019288019639,0.17693407293398844,-0.12058003778182913,0.01814492336177373,-0.02879972705610747,0.0031115762957474253,-0.030020674994981518,1.0025577632172116,1.3435224766222859e-05,0.002427679178643445,0.00038858952010928296
-0.034036261296438504,-0.02056630549553276,0.17376177279585456,-0.07148653564496968,-0.012777216794371455,0.016968738111710475,0.008274162335174385,-0.026799831205109387,0.9916149475650147,0.00018719699756207742,0.0023936429173470066,0.00036802321461375026
-0.0730985040776991,-0.14298949625163618,0.2668083222390439,-0.10079944464439215,-0.004600486444921092,0.050941046607493774,-0.0011522759198221528,-0.02309105661198129,0.9942498493864516,0.0004540053198011213,0.002320544413269307,0.00022503371836211404
-0.2271046089662007,-0.1432421456369259,0.23465895689278907,-0.059733235801455044,0.011208825387580997,0.15606499483909772,0.003173422506045168,-0.030932131100137178,0.9851335344961343,0.0006886642766939105,0.0020934398043031066,8.179157272518813e-05
-0.16418190375809222,-0.274710976916785,0.14755119438131042,-0.006637168616675314,0.054236705469111635,0.06142048195484373,0.010366290502458573,-0.027880525577060524,0.9863770898314798,0.0008362154710752208,0.0019292579005450142,-0.00019291940419159686
-0.25573462806864344,-0.47625838091551276,0.06838606388796095,-0.024579485613188456,0.029184857717322637,0.09654505163510473,0.010910138026894412,-0.02252465965090726,0.9972557740393819,0.0009046015349631818,0.0016735232724763708,-0.0006691777851071096
-0.3005794810518687,-0.4448055868286374,0.011806379800021577,-0.009795556990063462,0.06756102676058137,0.19246619888131938,0.00601713923551757,-0.01827005825107602,0.9896985829926848,0.0009164079147632033,0.001372943791424502,-0.0011139833719357472
-0.3477718892278595,-0.3001521902403323,-0.04021292985678066,0.059902461233207915,0.05636173536891483,0.131461773424784,0.004759972441608107,-0.02170242281987495,0.9951350757780146,0.0008761949849064225,0.0010251719021966428,-0.0014141355621760795
-0.4575453009383271,-0.49241669600612836,-0.18462957833486326,0.07680507883937514,0.09299795923900918,0.13626730168144088,0.0027642533369578396,-0.026906004961599284,0.9940372812342307,0.0006915654065715593,0.0005676266012583155,-0.001906552258182208
-0.5316289320446465,-0.459570095682089,-0.15604657665106897,0.06556484885977072,0.03762095382541095,0.20320700785794907,0.006657308480962898,-0.021912867035951276,0.9918748759489832,0.0005355188299204903,3.5997669213668985e-05,-0.0023661223538642973
-0.410489853974188,-0.3122222980113603,-0.3314200371603014,0.09741770814426708,0.07936397316760696,0.175406845602233,0.0018407123177144186,-0.030028654285507394,0.9888911781630472,0.00020409879276018887,-0.0003744921847605191,-0.0026783446518756572
-0.5854244648408802,-0.39035514643956265,-0.2677287013516941,0.19216215785945295,0.10957841056445264,0.13762290663544696,0.010435025045551369,-0.022831063878636634,0.9920413318063318,-6.362990859150518e-05,-0.0009599166496013994,-0.00306869979831522
-0.5905058910165101,-0.27664465868029664,-0.3096931439667603,0.1598676382540993,0.12524305779491743,0.11518909419147311,0.01507436096678944,-0.024071473533594897,0.9939147913075754,-0.0003733230525582655,-0.0015504225406179095,-0.0033453444569955166
-0.6029272375745356,-0.44112572108942394,-0.36072752480829673,0.18272344061341148,0.09624422625533428,0.031066853044848082,0.010868503994531077,-0.03712688065726266,0.9924331358171062,-0.0007340505773665622,-0.002153349778192445,-0.00378647017808494
-0.4644262486735246,-0.2179512254107784,-0.3295508262676197,0.14785720581251596,0.034923803930873076,0.11413862580948732,0.005838548566350995,-0.03635768462043902,0.9927937411825432,-0.001063601403634182,-0.00261777602686597,-0.004004421403495719
-0.4679677381561761,-0.1840605435761029,-0.18575034642280405,0.14490928514880783,0.0411122088534858,0.0359351172734601,0.009142906042285098,-0.027999193171071607,0.9904370879490568,-0.001249351750056986,-0.0030857437650221456,-0.004188481947071821
-0.4946476819630496,-0.09694367077795286,-0.33679238428983327,0.1192378402344036,0.07127064922928507,0.0016053179480429221,0.009845537116896789,-0.02629672004328545,0.9913943444633859,-0.0015861441343468193,-0.003580391446985196,-0.004285425617849774
-0.43931278374727656,-0.04196563595321279,-0.2253016480478497,0.08860776649706922,0.04999973158212384,-0.016954759066764587,0.004236088995355279,-0.032916227442815416,0.9953656812601999,-0.001811445782394669,-0.004019704230732473,-0.004327391253802987
-0.3389730816669488,0.10936517289804594,-0.1531149442352116,0.05757983878029471,0.06917361123929307,-0.04931235710215615,-0.0006699292123440595,-0.025084966227333274,0.9903884038514207,-0.0019645607266298806,-0.0043586773123994215,-0.004218026080904941
-0.35669213281148515,0.17592138282526837,-0.27493055842169056,0.03466639178990853,0.07441884459395733,-0.05245271191288784,0.014123775907267846,-0.022199508689615056,0.9925245501997146,-0.002239491285051571,-0.004715369445210907,-0.004042104698079673
-0.2871712258859225,0.18228411642287265,-0.021496312251203444,0.05677388862165148,0.014140128726146915,-0.04226349762648158,0.006595979742416763,-0.027518989585597675,0.9921368233912464,-0.0022609875973027744,-0.005002540671096829,-0.0038598205816568008
-0.09585328102843094,0.24338534697563924,-0.055079015005540945,-0.008097304247365317,-0.036208561096297186,-0.07751911225377613,0.010816550145878841,-0.025029557466972437,0.9864604049694042,-0.0023160666123083155,-0.00509839395212526,-0.003616435234681161
-0.03637107277564585,0.4063673049202685,-0.0007064509677965,-0.09348160310325238,0.01633239971132352,-0.0500868573512031,0.01145399951955755,-0.027578340095764174,0.9959643602986445,-0.002316773063276112,-0.0051347650249009055,-0.0032100679297608933
0.05895916292629076,0.28406076188508356,0.150848706417057,-0.05311315555301124,-0.07198930931644557,-0.07792378858292827,0.0018680019603471661,-0.03276716315434473,0.9997273538598254,-0.002165924356859055,-0.005075805861974615,-0.002926007167875809
0.19280056167360982,0.38166263913279647,0.21254008320350454,-0.12267794154000566,-0.05931800953289407,0.005371659111616,0.006009963606521876,-0.024262137545291274,1.0034567319043965,-0.0019533842736555503,-0.004883005300301005,-0.002544344528743013
0.11313833916115298,0.457591457849874,0.31743094881206,-0.1731797377095914,-0.05004166864017808,-0.09898196960274842,0.0003199989765475999,-0.02955202691001898,0.9937498394008143,-0.00163595332484349,-0.004769866961139852,-0.002086753070893139
0.27012440393669973,0.5062341401735512,0.20694095346820557,-0.1943875051274228,-0.060855955386093584,-0.06271003416570035,-0.0078416620284631,-0.022855803263582875,1.0008745630104845,-0.0014290123713752846,-0.004499742557203152,-0.0015805189307195877
0.3034174188141048,0.3981288436971426,0.22848736855028087,-0.1888860688116132,-0.055953001848360606,-0.09829029838156687,0.0006225727555875717,-0.02544796751433915,1.0015153336201923,-0.0012005250028250037,-0.004196325138389047,-0.0011823900870224452
0.37721007153033165,0.3260971588678333,0.2778743413715174,-0.21708732438465206,-0.057173356731850006,-0.07873341304214174,0.016078000353655423,-0.03310518190547336,0.9934588162083097,-0.0009226506614534862,-0.0038191150668587153,-0.0008562929281546119
0.4680689202519754,0.417212069063167,0.3666182146613286,-0.26927193670577393,-0.07413577157992503,0.002912013344435962,0.0018257128369306385,-0.035034950074397136,0.9912785802596286,-0.0005560324467921576,-0.00335104614660674,-0.0004390808590914448
0.570129370968975,0.3756986666526475,0.2741440050796894,-0.23306682205548712,-0.08029685195594782,0.027153876381343103,0.007717738017736759,-0.025679155614472208,0.9968020729256587,-0.0002818884417124682,-0.0027809167756377654,-6.338219243879728e-05
0.4282548766455744,0.25837770581835867,0.09243880915593958,-0.16256206417165842,-0.09399764983397375,-0.04880151367788839,0.0017361667728548213,-0.03044347570751619,0.9926265338005625,-0.00018944963255652862,-0.002352661898992191,0.0001949955133795614
0.6154515973528996,0.2435088038462693,0.207380425008529,-0.18667683064538967,0.00013607007316352848,0.04804843356987329,0.014037588905829776,-0.030287981034185365,1.0019036025718862,1.793079245200038e-05,-0.0017372103016392911,0.00043850431722583077
0.4221179287995681,0.22676282803972486,0.1542940879669995,-0.16731350151764285,-0.0630861685074996,0.08672471580815182,-0.00671735426303274,-0.027541556199580097,0.9910364095333682,0.0001722248804189999,-0.001315092372839723,0.0006652671452655556
0.5217240195401611,0.105078543206125,0.05929549405073846,-0.17628241586920476,-0.057881503794561605,0.14695447667407455,0.00324580827445404,-0.03289610617470732,0.9926290128344247,0.00023152037446973835,-0.0007933683532995619,0.0007703456884716807
0.46767041940210197,-0.025300197266237806,0.09538023303202822,-0.12389059636919753,-0.058251827423388344,0.07303337342446811,0.012016004435317166,-0.036689862739581594,0.9918294885162507,0.00032690060750176653,-0.00032569793389745997,0.0007450454912054428
0.4062575546269361,0.01982576982492349,0.019424294238641667,-0.03137679682061627,-0.05711547838902199,0.11317344265810345,0.002108153180220521,-0.0209595919031555,0.9893734963871522,0.0003463249017404082,8.055962072947615e-05,0.0007648712610303664
0.5337928544825039,-0.1265756834600658,-0.035046691284256436,0.011501288345683062,0.016100043877428076,0.12705579775141843,0.009597999916983173,-0.027444214330037367,0.9901330132402473,0.0003112782104561518,0.00061435247521198,0.0006382955775703006
0.5623905267895252,-0.1700576500429698,-0.1368503123489184,0.039227613629342434,0.0433773070433994,0.07453226884470637,0.005917995905375041,-0.0312343330544703,0.998034386525847,0.0001744278981072334,0.0011767430020015054,0.00046823792752733075
0.37956284722509914,-0.22420530183125525,-0.18670897791160446,0.07685380366758535,0.0170077448680716,0.09792060287203398,0.0002021157590729318,-0.04002771756467437,0.997873033831841,-1.2281079804371072e-05,0.0015563058492266046,0.0002440326256960755
0.30241604925185844,-0.1375384025193923,-0.2474875713161043,0.08691457262329137,0.0441694386317017,0.06478165649635026,-0.009685995311640326,-0.04098343757381944,0.9848986453169167,-0.00025976865112047536,0.0018587218984784629,0.00010649422317668316
0.34059876871417183,-0.23106846553520166,-0.16130125293850434,0.13939996245933112,0.03360990658603679,0.041337970512698496,-0.004272697199877662,-0.034060354149120675,0.9906672516394535,-0.00042106990405897974,0.0021993206671926347,-0.0001245742423585185
0.06189631575715254,-0.26041099356626696,-0.12219133636051326,0.13411647162543078,0.0353641989800702,0.04344711067434297,0.0015289606148543326,-0.029672366745463544,0.9988313177600995,-0.000543261240419493,0.002261216982949787,-0.0003849852359247855
0.16472536696283066,-0.39719728781695807,-0.14845326233241068,0.15732359009682934,0.029151887629109335,0.00463501224629642,-0.004853169420949866,-0.02656619446426862,0.9875700146152878,-0.0006917145027519037,0.002425942349912618,-0.0007821825237417434
-0.068885208655204,-0.10178042931528072,-0.18461854939787425,0.2029754235811069,0.012474607787057413,0.03796940334720631,0.00286853625249387,-0.02910751331733654,0.98498147669535,-0.000876333052149778,0.002357057141257414,-0.0008839629530570242
-0.039851416116599356,-0.3136052776206552,-0.1401441796133366,0.2451970419317452,0.03231496343219702,-0.026837552777011726,0.00034444959674951215,-0.028093185361899906,0.9914201510591828,-0.0010164772317631146,0.0023172057251408143,-0.0011975682306776794
-0.0809457662539624,-0.18319470135874868,-0.11342062817396402,0.2197665690912163,0.08227281106839403,-0.03514250830066697,0.006329916737415541,-0.03579093190128222,0.9910860484209847,-0.0011298978599370785,0.002236259958886852,-0.001380762932036428
-0.21151429158690346,-0.2611251466763708,-0.02360729890078353,0.18949552050345048,0.051784892223438725,-0.048890589006124426,0.00037473250112868577,-0.0322194424303445,0.9919671765193092,-0.0011535051588378621,0.0020247456672999485,-0.0016418880787127989
-0.1971909894033369,-0.13560824214803607,0.011624180935970906,0.2753604024132242,0.012313594319669982,-0.12312213154590092,-0.0008741984082746904,-0.036635828560219796,0.9964826446459628,-0.0011418809779018913,0.0018275546778966116,-0.0017774963208608352
-0.23607956945555908,-0.10231549387321359,0.08966395930564458,0.2222651983919226,0.01864544209183677,-0.15993974723657572,-0.0017887090689321253,-0.0320329348262324,0.9950869639858502,-0.0010522170185962468,0.0015914751084410525,-0.0018798118147340488
-0.22432814016016625,0.23201626748892223,0.1662756516959924,0.16476891652511047,0.014041608647062966,-0.09531204884294754,-0.0008662048577010369,-0.030171123987940956,0.9930369950800262,-0.0008859413669002543,0.0013671469682808863,-0.0016477955472451265
-0.38851711161620645,0.10965006418198386,0.11969377752405785,0.17021618199017122,0.030023343972623615,-0.15966637139440779,0.00735327094346303,-0.024526921920377164,0.9881874160160963,-0.0007662475893761965,0.0009786298566646797,-0.0015381454830631425
-0.22838207917171457,0.08613433410809551,0.11619156198824812,0.13768935659798795,0.009890165016194174,-0.1529220398070865,0.00739709186540427,-0.03520699201779377,0.9935990644583638,-0.0006500560273879483,0.0007502477774929651,-0.0014520111489550469
-0.42464254402180274,0.21583224971026885,0.025491731994421424,0.08099496099195352,-0.05135420581105056,-0.17071545420707523,0.0008929345205684686,-0.030655501700922058,0.9943312679231495,-0.0006245642953935269,0.0003256052334711623,-0.0012361788992447781
-0.19458404400948656,0.24599947859738863,0.24304995618122424,0.09115068572749702,-0.013242151416855743,-0.12338962947519914,-0.0039498467721572885,-0.03178973397526632,0.9896956132498198,-0.0003815143392123026,0.00013102118946167572,-0.0009901794206473892
-0.327669191956465,0.17538869051347855,0.11572325479300724,0.07465735899758544,-0.0389122701879091,-0.07104261054900778,0.011682668307402099,-0.03336622343417591,0.9984949389888219,-0.0002657910844192953,-0.0001966480024947893,-0.0008147907301339108
-0.3938026885960938,0.27007433666479896,0.15894439171253538,0.036261894039093495,-0.03174226997230811,-0.07309905727783972,0.003810968893702202,-0.023377064178958202,0.9858337047277649,-0.00010684669270675995,-0.0005904506910908832,-0.0005447163934691119
-0.34049368836310345,0.2936852290653005,0.1239512458569637,-0.020428424714613556,-0.01408347398479743,-0.10688497742083768,-0.0027577222482942708,-0.0332964673920431,0.9832642797652505,1.7104553150203746e-05,-0.0009309443794539865,-0.00025103116440381134
-0.3471700590048289,0.2666204207936979,-0.08571685227601217,0.04172076329793234,-0.08146534087507415,0.007932917092301607,-0.0038142914929468687,-0.029879722395434825,0.9875733505033407,-6.861229912580843e-05,-0.0012781144384588156,1.558925638988656e-05
-0.2555124562789091,0.24477528832094114,0.11626725002758351,-0.13287958680915224,-0.038305286457015454,-0.015888225265915358,0.0006515094988658458,-0.033433598585095516,0.9888658742491764,4.765495090177509e-05,-0.0015336268947377246,0.00026036454471082773
-0.17650286427705772,0.24910367524636798,0.06802722380795781,-0.08703748542691438,-0.07535840257480744,0.03779070100054823,0.003259699320499964,-0.03459218596620962,0.9882619199890204,0.00011568217470973291,-0.0017101297590147821,0.0005094682199571957
-0.011252354035008516,0.24176079050983404,-0.05010308749034717,-0.09495192023798592,-0.1555778396265669,0.06237910229335553,0.005208363563520955,-0.02611328679100062,0.9996623924158005,6.557908721938573e-05,-0.0017213821130497905,0.0007512290104670298
-0.06277385057295808,0.1759608802480874,-0.206448847597473,-0.09594924456048144,-0.042078963795933975,0.09924854468889775,0.008279941633053574,-0.027478731524972246,0.9964240570230961,-0.0001408697603780873,-0.0017841559636227488,0.0009271898907151171
-0.10857905609428786,0.13434180109822974,-0.1839942864605428,-0.16201515274492687,-0.09686673457590708,0.1563248265254351,-0.00421625634776972,-0.034817659517307226,0.9977885229080817,-0.00032486404683863015,-0.0018927350197170366,0.001061531691813347
0.09295040627121179,-0.04334131409175959,-0.18930359598084617,-0.10351880592883829,-0.10708080933853456,0.1467883752033757,-0.008986517900271345,-0.03900149177486999,0.9964065534950277,-0.0005141676428194764,-0.001799784613445825,0.0010181903777215873
0.22853910917519663,-0.1048716934559337,-0.3038565136408754,-0.11731378647833268,-0.11211514948520725,0.13175646940378685,-0.00481522582206891,-0.02368878214725704,0.9934961974998057,-0.0008180241564603518,-0.001571245504270628,0.0009133186842656537
0.19586993954498866,-0.037385359057177825,-0.18062622434292858,-0.08248557705727746,-0.06285872338591059,0.17006337601493243,-0.0036954722974879136,-0.03529727202048759,0.9836973712921608,-0.0009986503808032804,-0.0013753755647256394,0.0008759333252084758
0.14919444406757365,-0.28848736939470265,-0.30651932231779616,-0.08395155572055475,-0.08343946256320849,0.1731265321980876,0.004907881227363274,-0.03652216896512858,0.9831865586643074,-0.0013051697031210765,-0.0012261811206580656,0.0005874459558137732
0.30050478681328213,-0.38484056797400484,-0.21732065708960274,-0.05911529062331117,-0.04947551241592244,0.1752023489088087,-0.004805761839050504,-0.031728361580864374,0.9980374987036456,-0.0015224903602106793,-0.0009256763338447834,0.00020260538783976827
0.3311707875483149,-0.23198146329623137,-0.3627615323977726,0.0008440000390622909,-0.08634471463624604,0.16881127370798632,0.004555275782418544,-0.03939502388308481,0.9882520697092403,-0.0018852518926084517,-0.0005945055462964684,-2.937607545646309e-05
0.18836910455518022,-0.3072726865033808,-0.1967830130136361,-0.02429769109402931,-0.009633612131517644,0.1399181336916729,0.0003095413766883296,-0.030468232993184897,0.9929229587527478,-0.0020820349056220877,-0.00040613644174128816,-0.0003366487619598439
0.43976788781197196,-0.4972824781580806,-0.18917858064768495,0.03279191453590809,-0.03169377118569848,0.1240448064428828,-0.010068481531827416,-0.033573552533485304,0.9932840936703522,-0.002271213486269773,3.3631446070683805e-05,-0.0008339312401179245
0.2418388496416755,-0.5104777943647815,-0.2286825543997285,0.08996619558665397,-0.07037573209696536,0.11949181133130349,0.0002857852323623572,-0.032552989580520685,0.9996721106847224,-0.0024998960406695013,0.0002754702957123593,-0.001344409034482706
0.3550571550891008,-0.3981112804489713,-0.1190934997637477,0.0916933137982596,0.0024307064555069632,0.13541113269253896,0.00753613451545897,-0.04190059862327021,0.9914511780286359,-0.002618989540433249,0.0006305274508014602,-0.001742520314931677
0.41811081063503575,-0.5277931110566445,-0.011149279389426524,0.05721655249576294,-0.044958019810367476,0.037551932875448675,0.0012340151793700485,-0.03602122892138887,0.9874782992753783,-0.0026301388198226756,0.0010486382614364959,-0.002270313425988322
0.33518991918805224,-0.3654931734970633,-0.07278173734643023,0.15671775495138998,0.038540527998794614,0.05586312699776913,-0.0046834115731263625,-0.038377093053282664,0.996120941522807,-0.0027029205571691053,0.0013838281806245484,-0.002635806599485385
0.22342149621726035,-0.5156852644415514,-0.05824577425040832,0.15859776793717384,0.0688147193542608,-0.05882657319934211,-0.003535253782641105,-0.03966173579438774,0.9865621310928528,-0.0027611663314195136,0.0016072496768418086,-0.0031514918639269363
0.2557906100871397,-0.4657648468653227,0.045009948705735506,0.13289590679911994,0.04711986020678783,-0.031173617054377455,-0.0032916165291937633,-0.04094463955395703,0.9898930584923007,-0.002716156382713778,0.0018630402869289483,-0.0036172567107922594
0.2058397204657638,-0.3284907844797423,0.16935377316636493,0.12234807855923367,0.06266714859633629,-0.05069719779499877,0.0003085024993005549,-0.03478415727468454,0.9894153580028837,-0.0025468026095474133,0.002068880007394712,-0.003945747495272002
0.04648914524976387,-0.2909327013177915,0.23015774923983862,0.15425884418609032,0.06693163108510553,-0.09878700698797137,-0.0005925084746847219,-0.033569952989413655,0.9875885407593676,-0.0023166448603075744,0.0021153691526444762,-0.0042366801965897935
0.13260974333094794,-0.06626157437136296,0.2546594109702946,0.11317944154351434,0.06355837053474117,-0.08926541786059466,-0.008116832620415834,-0.03038715233708085,0.9927297772786922,-0.0020619854493372797,0.002247978895975424,-0.004302941770961156
0.0717411667881829,-0.1075225732248315,0.21757973779496229,0.1430185308866412,0.1373301766631412,-0.039447814247975665,-0.005355711047859563,-0.03766490273655323,0.9978085604457787,-0.0018444057115423176,0.002319720062763607,-0.004410464344185987
-0.05019429630170355,0.05524601900119233,0.38532513020543674,0.09139893700020298,0.09310071541007488,-0.10814301707797812,0.0013927647387145395,-0.029081242839023143,0.9890002285935745,-0.001459080581336881,0.0022695257664619036,-0.004355218325184796
-0.1375362590047173,-0.0011597136724828955,0.3571465422987657,0.08045830960516684,0.043154960516948844,-0.02805930823276885,-0.0009382192571252596,-0.03513524260192862,0.989926877161702,-0.0011019340390381151,0.0021319895074571864,-0.004356378038857279
-0.20065141702642916,0.22526595258151316,0.32779016400533234,0.01972665347804695,0.10767860948267402,-0.05188745181248181,-0.008052231950808205,-0.027226532214146212,0.9850935333358641,-0.0007741438750327829,0.0019313380904307576,-0.004131112086275765
-0.25641067169389087,0.25468091641003837,0.24528543470101094,0.0004055696973701648,0.04544484282884197,-0.08043491954354028,-0.006043822272780372,-0.03601646293483392,0.9878543029070502,-0.0005288584403317719,0.0016749274187368665,-0.003876431169865727
-0.28679795859222507,0.32033993531375204,0.31325352397136436,-0.011414776204807324,0.08372177224930527,-0.02173462406783387,0.0004414968773273722,-0.03675690682362176,0.9841828124672323,-0.00021560491636040755,0.0013881294601446412,-0.0035560912345519746
-0.37186127369140914,0.2959289939733861,0.1916955584149871,-0.08171971053415761,0.06576445370368424,-0.014986158634364784,-2.824485247905845e-05,-0.02824182620258213,0.9813112532623833,-2.390935794542043e-05,0.001016268186453232,-0.0032601622405785883
-0.4984457715488479,0.4142227365286347,0.018064480608035408,-0.16451399864375668,0.049025801308346426,0.039422301025847026,0.0004214621222293066,-0.04122241762134783,0.9832736159574537,-5.844877337385021e-06,0.0005178224149043842,-0.0028459395040499537
-0.49907212692830555,0.3663332512413914,0.10008545986626304,-0.13695589984606624,0.026221517461224655,-0.01804139309367997,-0.0028051945036535065,-0.03274250769133445,0.9918435751899916,9.424058252887802e-05,1.875028797607864e-05,-0.002479606252808563
-0.44919127584660384,0.4279988327483811,-0.06074625127918241,-0.1765693344603114,0.04970578332090554,0.06402195693875996,-0.0027714618179139204,-0.034004867912164984,0.985542009764945,3.349433124969561e-05,-0.0004304409878705252,-0.0020516074200601815
-0.5282901122366543,0.539520254954716,-0.18196625540959177,-0.18305584957263524,-0.022160166547109384,0.07932925001697555,-0.006826932564211438,-0.03496590423773071,0.9910085233922705,-0.00014847192415989616,-0.0009587311001071795,-0.0015120871651054656
-0.5723133835301386,0.49710701462509643,0.0018906096975418313,-0.22422169047801244,-0.009982983312930488,0.10416044978926242,-0.007455371338131032,-0.03921063862619224,0.9875178048644848,-0.00014658131446235436,-0.0015310444836373182,-0.001014980150480369
-0.7083786857187067,0.28058956853204375,-0.17551289856133948,-0.21262533932761782,0.014417369588691348,0.08495171224506913,-0.014235130472204836,-0.03851386004677295,0.9905604006375579,-0.00032209421302369383,-0.002239423169356025,-0.0007343905819483254
-0.5904196137054262,0.34044635897966835,-0.2540850183912645,-0.17301216811855963,-0.05484079440743169,0.08243328345473551,-0.005430766080787713,-0.03630959375910028,0.988929296284811,-0.0005761792314149583,-0.002829842783061451,-0.000393944222968657
-0.5839203016357466,0.2842076880975969,-0.16837932064215735,-0.19456054205033552,-0.005493457624603886,0.1336280373537557,-0.004217913563988372,-0.03213052535362104,0.9924158173917094,-0.0007445585520571157,-0.0034137630846971974,-0.00010973653487106008
-0.6392673507984434,0.3240063115219441,-0.1591019649665678,-0.2176356083387783,-0.08954546358340916,0.045326970084126485,-0.007994049010954584,-0.03382409667704566,0.9918903973122583,-0.0009036605170236836,-0.004053030435495641,0.00021426977665088402
-0.5234986496882211,0.29401348452736176,-0.20988036856356035,-0.156045592893603,-0.0745789595081793,0.1348913104446587,-0.0018183334729565837,-0.04957062531648927,0.9865056925761668,-0.0011135408855872436,-0.004576529085183863,0.0005082832611782457
-0.4964809975912105,0.1721341895969688,-0.2688125666071153,-0.1758285459705729,-0.0803690835489401,0.06700480032836154,0.0036182780775954873,-0.03304336906993728,0.9856512846664816,-0.0013823534521943592,-0.0050730100827750734,0.0006804174507752146
-0.42436585324306125,0.11435294953866848,-0.1719981709314733,-0.16723170015905697,-0.04842622261721844,0.07063493653669194,-0.003996390876610127,-0.03541663128731721,0.991098078605822,-0.0015543516231258324,-0.005497375936018134,0.0007947704003138829
-0.24570679425327008,0.05735947131983094,-0.04129458139710575,-0.11415291831795135,-0.12813054581182504,0.06577038736991875,-0.0005908614259271588,-0.029504911073521167,0.9859764703345082,-0.0015956462045229381,-0.005743082730271405,0.0008521298716337141
-0.23696658689884026,-0.09144808264628987,0.04241309480238602,-0.027075784394750224,-0.12215609801981323,0.026942613593165694,-0.00978532018556199,-0.03997382285443817,0.9915557996868044,-0.0015532331097205523,-0.005980049317170245,0.0007606817889874241
-0.20852489412909558,0.06164984506503615,0.19984956327756484,-0.010023703933138908,-0.03200908301004543,0.024303011208297108,-0.0018358829663703224,-0.03701229758229909,0.984280029371053,-0.0013533835464429873,-0.006188574211299341,0.0008223316340524603
-0.0026101091704100188,-0.12202953729789907,-0.07046725084860322,0.03483469210721181,-0.09129709198073087,0.003414695066899084,-0.006074037794673299,-0.04015518241798095,0.9870464711265663,-0.0014238507972915905,-0.006191184320469751,0.0007003020967545612
0.15531312868749642,-0.23794315730168977,0.10527605568803973,0.09869665622408912,-0.09563804200314792,-0.03453831565987357,-0.004340714618959756,-0.031144376940572045,0.9883201271907623,-0.001318574741603551,-0.006035871191782255,0.00046235893945287135
0.1473337483937721,-0.38146629706341917,0.10091819004145103,0.1135571217114466,-0.05838326156083863,-0.08032462293442318,-0.005412215937577361,-0.034149229739432484,0.9920067111057442,-0.0012176565515621,-0.005888537443388482,8.089264238945216e-05
0.25235188533046427,-0.4224734205612982,0.1730465516657347,0.13756810777528017,-0.08783676122198363,-0.10647994194643896,-0.008254647702244104,-0.04139769441950953,0.9875901320507526,-0.0010446099998963653,-0.005636185558058018,-0.0003415807781718461
0.2049469187338997,-0.2243476856888003,0.07249214086373261,0.17542734881284125,-0.07829558809212485,-0.10049061188323614,-0.01376009347987163,-0.028731019646917995,0.9864138191214438,-0.0009721178590326327,-0.0054312386393241185,-0.0005659284638606463
0.40611993539332675,-0.18893910785742732,0.22386646072049818,0.1830459412769057,0.02748372860099809,-0.1898977855135056,-0.008528960870803536,-0.04189030912467122,0.9904220207250853,-0.0007482513983121344,-0.005025118703930791,-0.0007548675717180737
0.4255818332861465,-0.34981423236496556,0.1649853457233258,0.2231842557030722,0.045814721913158926,-0.06454629727074782,-0.008588963199437413,-0.037846129977971675,0.9852605202416626,-0.0005832660525888086,-0.004599536870644645,-0.0011046818040830392
0.481450392316834,-0.30409568634524653,0.19452174666486866,0.22909383074900885,0.032192824251184346,-0.1194226991123475,-0.011632853040523049,-0.027363714641251077,0.9894133663271995,-0.00038874430592393994,-0.004118086478327811,-0.0014087774904282858
0.5328549901790872,-0.024579783305757275,-0.06694507199410041,0.27648985147986854,0.057559570947147594,-0.16372555703869704,-0.008919219881729648,-0.03817311925331601,0.9889792866838439,-0.0004556893779180404,-0.003585231488148724,-0.001433357273734043
0.5430993912606704,-0.13715749450662193,0.12965832519818613,0.26204678843159573,0.006294247307718362,-0.1394131490149414,-0.0093939373317931,-0.03865035348414818,0.9930874859675565,-0.00032603105271985426,-0.003042132096888054,-0.001570514768240665
0.4857854931686819,-0.09608954318133511,-0.07688756293732514,0.1839454940463362,0.08996836311299934,-0.1304298929963996,-0.0034059897276557515,-0.03789991390019978,0.9862120347920762,-0.00040291861565717936,-0.002556346603719372,-0.001666604311422
0.6263885825107041,0.0014243362618945807,-0.005683838628169251,0.18370096499442817,-0.00023418129607777772,-0.03248353905223165,-0.00396603162832122,-0.041425751844247016,0.9875980905002892,-0.0004086024542853486,-0.001929958021208668,-0.0016651799751601056
0.449509066665128,0.04994551735396688,0.06218471322822623,0.23198005535284025,0.009171394804897596,-0.12283354755724081,0.0013463494361121995,-0.03415810715340279,0.985271304891625,-0.00034641774105712236,-0.0014804489545435398,-0.0016152344578061384
0.6350697002763354,-0.023061457712104744,-0.24957253863343992,0.1636844417933723,0.11861161169458213,-0.08858471632692136,0.006598681893565715,-0.040344966041032285,0.985669293556343,-0.0005959902796905623,-0.0008453792542672045,-0.0016382959155182434
0.6021075263160357,0.23170305345529651,-0.2033642287465445,0.16389830979705472,0.06099003522269724,-0.027079092687387236,-0.003493088640564059,-0.04156914775115242,0.9910211781495983,-0.0007993545084371067,-0.0002432717279511687,-0.0014065928620629468
0.37721472388404215,0.20139816708258837,-0.25353330666539964,0.09794637385784469,0.08761875675372695,0.01205486975813815,-0.017336621056812176,-0.035624187433561535,0.9854891915996795,-0.0010528878151025067,0.00013394299593287346,-0.0012051946949803583
0.36004581441923705,0.3637902194352295,-0.273511819611873,0.0599910451466755,0.09917076165015709,0.036060113715231566,-0.00949946501267891,-0.039671625605702664,0.9849305498760048,-0.0013263996347143798,0.0004939888103521105,-0.0008414044755451288
0.4016331645057686,0.2923803667059812,-0.3989759243839625,-0.0002537425423672461,0.04531823493456203,0.0798975616092841,-0.01333702938450673,-0.040698325132178255,0.9914776862702751,-0.0017253755590983422,0.0008956219748578791,-0.0005490241088391476
0.26014612084101774,0.27094996468931315,-0.3315918933349472,-0.02181655451453883,-0.015794018637335837,0.09368298780320763,0.002330440929465317,-0.04188571642917942,0.9826162828446106,-0.0020569674524332894,0.001155768095698897,-0.0002780741441498344
0.32091142418549745,0.24575830900426535,-0.2804250283577124,-0.05291002868554523,0.03855320181059338,0.10619835636464325,-0.007652831432443035,-0.036267487034377176,0.9850024741089951,-0.002337392480791002,0.0014766795198843947,-3.2315835145569045e-05
0.38516790947086216,0.35694326989193126,-0.2693574688925728,0.0056699257953971155,0.025949312709652797,0.1587640362870873,-0.008554885308672662,-0.03669492838663063,0.975204561933977,-0.0026067499496835746,0.0018618474293552569,0.00032462743474636225
0.040544406258701204,0.19972291980789877,-0.33274290199527573,-0.10739624721634392,0.008205400832581854,0.10939003811432786,-0.0015868264535951393,-0.04515802978563691,0.9843995478508003,-0.0029394928516788504,0.001902391835613958,0.0005243503545542611
-0.051494504511845465,0.18593765851442032,-0.3211124151846424,-0.08376603670910468,-0.034174314582534664,0.18602319720257254,-0.009881155980484507,-0.044998828703203604,0.9833413149875475,-0.003260605266863493,0.0018508973311021125,0.0007102880130686814
0.047608554615862386,0.10323943843846276,-0.1623437419607994,-0.1243647688027931,-0.03525166332584118,0.09466106093563348,-0.00797523247426526,-0.03655796217013843,0.9832311032808637,-0.003422949008824292,0.001898505885717975,0.0008135274515071443
-0.09354854437698643,0.027453396841448846,-0.09734239145827,-0.11304945381185652,-0.0792668746598021,0.21065176622465645,-0.011009617683024388,-0.03870831693693577,0.9871581585168304,-0.0035202914002825623,0.0018049573413409887,0.000840980848348593
-0.16666148935008027,0.03964327596636771,0.03330256736499391,-0.11176555535693436,-0.04569210915728375,0.1297884198100279,-0.008660494161610598,-0.04239373689610205,0.9830345664025985,-0.003486988832917568,0.0016382958519909085,0.0008806241243149608
-0.2589402653833991,-0.22631323839838957,0.07776118128963674,-0.18470275340125983,-0.07427067327682907,0.16200609516007897,-0.0021845197010203427,-0.030138515290500528,0.9848716301015407,-0.0034092276516279312,0.0013793555866075092,0.0006543108859165712
-0.23037032668651036,-0.12287596278289958,0.20885522798454131,-0.12189321373703317,-0.04563655398963044,0.08263740530731163,-0.013828791906539569,-0.040699583354812524,0.9881538359548073,-0.00320037242364339,0.0011489852599209987,0.0005314349231336716
