motionRotationRateX(rad/s),motionRotationRateY(rad/s),motionRotationRateZ(rad/s),motionUserAccelerationX(G),motionUserAccelerationY(G),motionUserAccelerationZ(G),motionGravityX(G),motionGravityY(G),motionGravityZ(G),motionYaw(rad),motionRoll(rad),motionPitch(rad)
-0.14544934066599338,-0.26848084602426603,0.05012256763906679,0.1937450900267684,-0.04995110209810498,0.12687968949633827,0.01706561706895699,-0.028354754560064924,0.9934776575627283,5.01225676390668e-05,-0.0001454493406659934,-0.00026848084602426603
-0.17746102531213076,-0.34298560365383385,0.23748157493507627,0.22492118098398176,-0.04967043933090069,0.1449211767759699,0.021945802940503138,-0.03306564925156953,0.9985254766952499,0.0002876041425741431,-0.0003229103659781242,-0.0006114664496781001
-0.04576567336114278,-0.34106029414823846,0.30648247678328777,0.19899122536340036,-0.09390976398487876,0.12111334285710305,0.02451179993531782,-0.03491231923313824,1.005700867347833,0.0005940866193574309,-0.00036867603933926694,-0.0009525267438263385
-0.2611115337070104,-0.24915005646927474,0.20356168979207107,0.22870904740123904,-0.04328465328176564,0.11472287131291635,0.017098443981307457,-0.03519835143840595,1.003241440107753,0.000797648309149502,-0.0006297875730462775,-0.0012016768002956132
-0.010556870011778421,-0.09814658285602908,0.22232567166425393,0.22079097546853535,-0.014154913158790871,0.08031985629066453,0.022745599886058163,-0.026364437335757718,0.9969660198276594,0.001019973980813756,-0.0006403444430580559,-0.0012998233831516422
0.21052315224922455,-0.19574349327360316,0.13212150526298108,0.19271223169830626,-0.02666004160832685,0.11278529586754396,0.01948104923435286,-0.033134687277385,1.0000852454850808,0.001152095486076737,-0.0004298212908088312,-0.0014955668764252451
-0.04018674029841557,-0.12483979747215172,0.2975860641008895,0.13692650026581982,0.013854513396404474,0.043743707243852376,0.030479685332048763,-0.034875734418466836,1.0001341369607486,0.0014496815501776267,-0.00047000803110724683,-0.0016204066738973969
0.3405869406602997,-0.0820635011566897,0.33618495148921246,0.15205914587805155,-0.025436048122042823,0.06770393047314702,0.0176790037910529,-0.03055153400080884,1.0017421715563375,0.0017858665016668392,-0.0001294210904469471,-0.0017024701750540869
0.3342215172094479,-0.034700659785015193,0.21898373743010727,0.10602315099313527,0.03845176104722524,0.01331558281599484,0.015139045513607442,-0.026405275229714975,1.0079264277204214,0.0020048502390969465,0.00020480042676250082,-0.001737170834839102
0.3077913594175332,-0.014773503087210912,0.25413338220304127,0.1012859341536852,0.06886202521084547,-0.008398378767308349,0.01980508895046766,-0.030402505440066903,1.0010163955065534,0.0022589836212999876,0.000512591786180034,-0.001751944337926313
0.42541478872930377,0.05687821490830155,0.2158823149078108,0.0626308117808416,0.03861118214901676,-0.01623408889968904,0.02617670015031346,-0.03965472315292473,0.9953796901039925,0.0024748659362077985,0.0009380065749093378,-0.0016950661230180114
0.24444459193788834,0.09578464279475009,0.19072081492540355,0.006276792575474337,0.019939421832422588,-0.029439712864141966,0.014844141544680134,-0.03076170067670861,1.0001154642484096,0.002665586751133202,0.0011824511668472263,-0.0015992814802232613
0.27652152260074453,0.32953767208852136,0.06653711279492748,-0.03351536608361748,0.04526464026793066,-0.04042157508196933,0.020557569092511153,-0.028665936481017236,0.9999972198016656,0.0027321238639281295,0.0014589726894479707,-0.0012697438081347397
0.3533193617564221,0.19383243834419783,0.025493945831188254,-0.0889135688006829,0.03151155283318173,-0.0420192504160975,0.015541982208154018,-0.02725666598875307,0.9983701255334935,0.0027576178097593177,0.001812292051204393,-0.0010759113697905419
0.2772456586155716,0.12800776589616278,-0.0690086010583937,-0.04231810297267459,0.009174999101694175,-0.13123762840035733,0.020684801746184603,-0.028528720637598703,0.9982165467838511,0.002688609208700924,0.0020895377098199648,-0.0009479036038943791
0.19377492500695884,0.23558925964503494,-0.08802330448837083,-0.09068984882996002,0.10270136009208873,-0.07024959598494772,0.0215121177868351,-0.02701180060530478,1.0036523699245472,0.0026005859042125532,0.0022833126348269237,-0.0007123143442493441
0.3576786814006502,0.2924209807543806,-0.2362155777884127,-0.09665838019558803,0.01579656000403288,-0.12156083555247989,0.018326734582037887,-0.03831670278692084,1.0020599709775315,0.0023643703264241405,0.0026409913162275737,-0.0004198933634949634
0.23331800433162533,0.3532627990225906,-0.1729042415026919,-0.14234858796712016,0.09534135022770304,-0.09806178616221209,0.018181646380462366,-0.03345655959476557,0.994014799160619,0.0021914660849214483,0.002874309320559199,-6.663056447237282e-05
0.14061503665645467,0.15380352673097109,-0.2352158035493616,-0.10030238657734623,0.0611206205541742,-0.0283888001947969,0.016712614682188768,-0.03283869412894913,0.9995866752968746,0.0019562502813720863,0.0030149243572156537,8.717296225859828e-05
0.146690615384243,0.19842957231118702,-0.14318549934591066,-0.15504532661890633,0.07133518476852595,-0.06506950990271386,0.009376848620462322,-0.023446725172781818,1.0050212493620823,0.0018130647820261759,0.0031616149725998965,0.00028560253456978534
0.04529746817906689,0.18268622622652858,-0.022009352833204515,-0.15054089206696813,0.0055278143219816885,-0.026299250748228427,0.018765675018597633,-0.030210040824478753,1.0057703545403487,0.0017910554291929713,0.0032069124407789634,0.00046828876079631383
0.019989868212677182,0.1189252309339556,-0.05225827973753251,-0.12467778554544888,-0.022395935408782704,0.016742612026963956,0.017361544425733164,-0.022522739833064687,0.9997948497866016,0.0017387971494554387,0.003226902308991641,0.0005872139917302695
-0.06793807206159416,-0.08234758289035532,-0.09027166431411551,-0.11375504994364136,-0.0335116383604367,-0.006685251341239215,0.023804709808432026,-0.023033654140007104,0.9916983535157906,0.0016485254851413235,0.003158964236930047,0.0005048664088399142
-0.27460282295592253,0.036905368802942345,-0.11283340815202247,-0.0965646583702109,-0.01628834417525591,0.0020563869634787225,0.011703734159508285,-0.03243387109005945,1.0000688024065074,0.001535692076989301,0.002884361413974124,0.0005417717776428566
-0.17887607729052452,-0.1808567011424437,-0.05841023704598295,-0.07829481790516771,-0.051018920240189836,0.06815213927650607,0.015857809518886663,-0.0314331183021796,1.0033971642883426,0.001477281839943318,0.0027054853366835995,0.0003609150765004129
-0.32339550877916234,-0.12469227081492348,-0.002099306155538316,-0.07551347710664776,-0.07136104699975264,0.05148704005716331,0.018134832380740925,-0.032387380099873915,0.9988952102014036,0.0014751825337877796,0.002382089827904437,0.00023622280568548942
-0.3724143223763396,-0.13198160427169925,0.00297383075381287,0.03015575272222263,-0.029510180738694877,0.052187324244069015,0.014048611801207533,-0.030183679907883135,1.0042852512943274,0.0014781563645415927,0.002009675505528097,0.00010424120141379015
-0.38776532796119634,-0.3462461570759281,0.13871269047521953,0.02697385370204603,-0.07014693879455662,0.111690192637254,0.027111838844797346,-0.036025521667433925,0.9967415565043388,0.0016168690550168122,0.001621910177566901,-0.00024200495566213798
-0.47828398298684144,-0.2698803617167319,0.15004490494145706,0.0600826519127891,-0.022387466454150292,0.15394381693810136,0.023771657700444298,-0.03461257006029415,1.0003463857227624,0.001766913959958269,0.0011436261945800593,-0.0005118853173788699
-0.599852454459287,-0.3664251498184396,0.03366189439643122,0.15749559363605764,-0.11566168081247197,0.05871292841887001,0.01812064299999388,-0.03157885766350773,1.0038171845212482,0.0018005758543547003,0.0005437737401207724,-0.0008783104671973096
-0.49440245082125084,-0.47103415534240367,0.21337420204474275,0.15535467575852557,-0.12524761817078023,0.08315384156045973,0.020441012237267006,-0.025549458184749643,1.0010748223191113,0.0020139500563994433,4.9371289299521566e-05,-0.001349344622539713
-0.504496299126643,-0.599089101484467,0.18083276841312151,0.12473342352615945,-0.13956734677759536,0.03404641184376335,0.020714745715531047,-0.03134849617507389,1.0033786942655978,0.0021947828248125648,-0.0004551250098271214,-0.00194843372402418
-0.6410383804262665,-0.4006995793983308,0.06648483396386044,0.16631446827319135,-0.1037762128233205,0.06921116984710755,0.023429751097126028,-0.032736324015604196,0.9893223304034594,0.0022612676587764257,-0.0010961633902533878,-0.002349133303422511
-0.6471543091038804,-0.4727314608164698,0.28940412974927854,0.13144603882125708,-0.07057997386464791,0.014820981077739185,0.015096299486753072,-0.029825198892459704,0.9923817372172112,0.0025506717885257044,-0.0017433176993572686,-0.002821864764238981
-0.6132424137989484,-0.409655784751374,0.10147919141783202,0.1501215947991738,-0.06930015525827245,-0.007488734976395494,0.01663237380398238,-0.03206761676160454,1.0029331967130937,0.0026521509799435367,-0.002356560113156217,-0.003231520548990355
-0.4843663949336887,-0.35310738271616254,0.21532515189793555,0.08868733766511218,-0.039687697599913724,-0.023421298371646422,0.012451722385971725,-0.027434146994212115,1.0005738219392566,0.002867476131841472,-0.0028409265080899058,-0.003584627931706517
-0.5396928670257384,-0.30602941864106714,-0.0033926409033714494,0.0894507253540636,-0.04759757314188419,-0.05675723397219428,0.023122778631567552,-0.017903181772979504,0.9906821815635455,0.002864083490938101,-0.0033806193751156443,-0.0038906573503475848
-0.4355558648209684,-0.29558554608207654,-0.015126269505513108,0.06666082743123669,-0.07872983343547742,-0.06897668986034343,0.023655367512188007,-0.02821769342751343,1.0019326707985803,0.0028489572214325876,-0.0038161752399366125,-0.004186242896429662
-0.26130360177155587,-0.1600940231175988,-0.09827979351729496,0.07028583985774575,-0.04509226132416353,-0.07388962368111317,0.021408735825061875,-0.03125586834816712,0.998535957177547,0.0027506774279152926,-0.004077478841708168,-0.00434633691954726
-0.31385316429159726,-0.2867268237534181,-0.1265633540572221,0.10055781508441472,-0.006248206347877397,-0.12082666286558481,0.016244813136549213,-0.024491596967209806,0.9956202304617547,0.0026241140738580706,-0.004391332005999765,-0.004633063743300678
-0.26360615290758954,0.07946756252776566,-0.1091613298319699,0.01950951893914438,-0.04659515649499377,-0.1146453080326097,0.019252605778068296,-0.032612250824573134,0.9996230581855235,0.0025149527440261003,-0.004654938158907356,-0.004553596180772912
-0.21551721001200388,0.1138595353049286,-0.19136470700356273,-0.07151043130307012,-0.0393179109013442,-0.10470866792777882,0.015537188841506629,-0.03230768970766743,0.9993473722772693,0.0023235880370225375,-0.00487045536891936,-0.004439736645467983
-0.020501835558369583,0.2384311075391966,-0.33500351078615614,-0.05715535465734084,0.014805272903648324,-0.14905203964998198,0.017200508944577735,-0.031238761153625415,0.9939761493433804,0.0019885845262363816,-0.004890957204477729,-0.004201305537928786
0.006842337535108385,0.17075457679566386,-0.35748980359250504,-0.07156525459576553,0.01816689254326285,-0.1857548442804209,0.010711225325370347,-0.03422444539906524,0.9941573678569618,0.0016310947226438764,-0.00488411486694262,-0.004030550961133123
0.04470365306470553,0.34138153909261804,-0.28968688792190733,-0.15393631598662672,0.05474442173977834,-0.10651083124800119,0.022755548524657537,-0.02313396766076795,1.0005537433906888,0.0013414078347219693,-0.004839411213877915,-0.0036891694220405045
0.07044445408220092,0.4521276061235274,-0.35501817132614866,-0.1609794054141369,0.025548132960000695,-0.11307331043424639,0.01540385512446587,-0.027979423083128525,0.9902332430260401,0.0009863896633958205,-0.004768966759795714,-0.0032370418159169776
0.12037060395640894,0.3921603982425168,-0.3671559971306396,-0.1651618912486927,0.06903596221350981,-0.09361733183872478,0.017170720515868577,-0.03575398046506774,1.0020921243701646,0.0006192336662651809,-0.004648596155839305,-0.0028448814176744606
0.345905114129926,0.48771816001810075,-0.2998089986065221,-0.1315428678754112,0.06394933386594796,-0.11633193201889865,0.02252259284860962,-0.02183774572947703,0.9878520598038288,0.0003194246676586588,-0.004302691041709379,-0.00235716325765636
0.34861721048345057,0.5679680849444517,-0.26925829248075933,-0.19705024177081368,0.07427392612592428,-0.07220311861816668,0.013764493744383571,-0.031649971007767515,0.9977462961488553,5.016637517789941e-05,-0.003954073831225928,-0.001789195172711908
0.46076505134900825,0.463317095775942,-0.29282523926859644,-0.2240011911015187,0.09199194173516105,-0.06293181780104136,0.01947162994412587,-0.02427256581262525,0.9982147529230818,-0.00024265886409069703,-0.003493308779876919,-0.001325878076935966
0.4009481098269797,0.4432661589081991,-0.16780158368158665,-0.19993700544479454,0.03832908832634697,0.023575951268246492,0.0197960162494962,-0.022516405419845415,0.9948743023522998,-0.0004104604477722837,-0.0030923606700499397,-0.0008826119180277668
0.63750644104223,0.4819402716447898,0.01754548479498419,-0.1503667283386243,0.08045978768332893,0.011643130730040231,0.013330527360049926,-0.027346004333641174,0.9993082268638913,-0.00039291496297729953,-0.0024548542290077097,-0.00040067164638297705
0.4949256737097709,0.3986805759542429,-0.110602494424443,-0.17612205833505495,0.08116307376144623,0.02895458601596941,0.019536204584136425,-0.027901915873454634,0.9960965623185953,-0.0005035174574017424,-0.001959928555297939,-1.991070428734143e-06
0.5145538483216411,0.22855702608485978,0.06791086877026693,-0.15929730085141103,0.09691934019335377,0.0906596519138014,0.02249146958545886,-0.024823347166444333,0.9944608437804018,-0.00043560658863147554,-0.0014453747069762977,0.00022656595565612566
0.6160855841944932,0.2864143684686982,0.10666377820872314,-0.14810132746638896,0.05687542751974033,0.10418171915620632,0.027526539024997597,-0.02148374363675703,0.9976620583753723,-0.00032894281042275243,-0.0008292891227818045,0.0005129803241248239
0.6242294292551749,0.22729245441434498,0.2403551228813374,-0.09338640377145176,0.07919974992034551,0.13299927233497083,0.017779851490626476,-0.02114830269160095,1.0055256337591059,-8.858768754141502e-05,-0.00020505969352662955,0.0007402727785391689
0.452336474880335,0.16305099997058983,0.3522403673504828,-0.11595991949587002,0.02931755872990012,0.13952182563363966,0.017286252030679482,-0.027780029419714858,0.9982578602710027,0.00026365267980906783,0.0002472767813537055,0.0009033237785097588
0.40594821946062243,0.12824391936602914,0.37728284229298403,-0.022035071638718835,0.0467149977174557,0.13539795077514258,0.03261091046687158,-0.018693509435159752,0.9960810088090687,0.0006409355221020518,0.0006532250008143279,0.001031567697875788
0.48164002494205205,0.00714710160011038,0.18513392023670683,-0.07117081297028324,-0.02858065125431582,0.13771934238616798,0.01662465357633234,-0.026119467108585582,0.9994616853155458,0.0008260694423387586,0.00113486502575638,0.001038714799475898
0.4320960961396604,-0.07623631020315608,0.265310090266908,0.08579014124105472,0.044842336539135275,0.1969720067329227,0.020217969330336562,-0.03136230167817118,0.9984751802898149,0.0010913795326056666,0.0015669611218960405,0.0009624784892727421
0.39592574172259687,-0.0926778787403296,0.2975894971973622,0.10494126562940652,-0.03893642735577425,0.16837298648064883,0.021259297156349884,-0.02719403312809036,0.997239327338202,0.0013889690298030288,0.001962886863618637,0.0008698006105324124
0.3921297779119433,-0.18004084265914833,0.4175886627007987,0.14395186261589116,-0.01941851027231136,0.19617256497551022,0.014070831905169924,-0.024343000237861623,1.0047574864835709,0.0018065576925038276,0.002355016641530581,0.0006897597678732642
0.3243118646247667,-0.2077005646160201,0.09956947637543415,0.23576328539230357,-0.023008760579333997,0.13478805968575017,0.023939109358838535,-0.02608923800109215,1.0109688970552533,0.0019061271688792618,0.0026793285061553476,0.000482059203257244
0.12143237882446159,-0.17567975496970784,0.22900325105003203,0.1788825343621674,-0.010868681601168766,0.10782654112402774,0.030018605415303504,-0.03339929579297327,1.0058617020263834,0.002135130419929294,0.0028007608849798093,0.0003063794482875362
0.20583275452911895,-0.19091437962690333,0.2539103522722685,0.23409858630408104,-0.03529476441457229,0.07861490065943776,0.0174983384263364,-0.03184561397887124,1.0082194589058373,0.0023890407722015625,0.0030065936395089277,0.00011546506866063284
0.02975878601236487,-0.27362260625901114,0.06156480064725181,0.24135080407882145,-0.04796180312744291,0.06581771058197118,0.024085339579369675,-0.029609095208241593,0.9932239401448738,0.002450605572848814,0.0030363524255212927,-0.00015815753759837833
-0.0681874846636126,-0.21585674784588607,0.18198020247505564,0.2077575052160231,-0.02923317724457978,0.03288222087163925,0.012237742175347023,-0.018874707455479253,0.9946908740606297,0.00263258577532387,0.0029681649408576797,-0.0003740142854442644
-0.05724997102711687,-0.30458325605724956,-0.0327922906341876,0.20522670937698206,-0.09084753977734114,0.06492108206666834,0.021997986388509208,-0.028363183151325196,1.0063141362115937,0.002599793484689682,0.0029109149698305628,-0.0006785975415015141
-0.09362477308241654,-0.25704827853858137,-0.015787053260481562,0.24492173019924454,-0.06112947557846067,-0.015438275196781015,0.015524160458249853,-0.021952340694102342,0.9966526696113802,0.002584006431429201,0.002817290196748146,-0.0009356458200400953
-0.1903867988795859,-0.24116337501969334,0.008534381482193085,0.24340331265994541,-0.0894807484296916,-0.08974292695481342,0.026077100617380902,-0.022893944430494667,1.0018433931553248,0.002592540812911394,0.0026269033978685605,-0.0011768091950597889
-0.18856805051600853,-0.09471005862288157,-0.10070043281989956,0.1794548912514779,-0.15708124252507646,-0.1351143213307358,0.015602699677444647,-0.023646872049970683,0.9969751902897688,0.0024918403800914942,0.0024383353473525523,-0.0012715192536826704
-0.3084866300350661,-0.12141128775591042,-0.21563469624953618,0.1672496886574371,-0.017249277171594236,-0.0524703920166108,0.014185599980695632,-0.022701778584897855,1.0016488862989912,0.0022762056838419578,0.002129848717317486,-0.0013929305414385807
-0.1751657079600012,-0.03420471136535009,-0.08022209329162694,0.14089214245240045,-0.08344752473879379,-0.06091871116400157,0.01988217974584431,-0.01941778667662759,0.999058991877234,0.0021959835905503307,0.001954683009357485,-0.001427135252803931
-0.3659095965148821,0.011055402627223418,-0.08611774437573835,0.16627174645776505,-0.07839980303858787,-0.0968364033927409,0.016632939292765797,-0.02216082664457487,0.9925515153535323,0.0021098658461745925,0.0015887734128426025,-0.0014160798501767075
-0.30937330296294396,0.04511061608066923,-0.16690049788662462,0.08535870629617233,-0.04800659209756402,-0.11031893195048961,0.020413857734497942,-0.02080114437671417,0.9984056711422934,0.0019429653482879684,0.0012794001098796587,-0.0013709692340960382
-0.33611659472539235,-0.10213926356876118,-0.12734526183208045,0.02068069978245881,-0.07329358951853293,-0.08497173896657918,0.017415675356738148,-0.01937954212462303,0.991592113326334,0.0018156200864558878,0.0009432835151542663,-0.0014731084976647997
-0.30898070925452437,0.22194000911855238,-0.1692262452616377,0.011508965996463592,-0.06469575962136315,-0.05454932288075238,0.020538306195849988,-0.026079014652564788,1.0033355826658967,0.00164639384119425,0.0006343028058997419,-0.0012511684885462473
-0.3669010033288577,0.23880448275284644,-0.016343125931642652,-0.04220234659194901,-0.049741380299449856,-0.08802239536408497,0.02513786905173631,-0.02382229748813783,1.0005875301817366,0.001630050715262607,0.00026740180257088416,-0.0010123640057934007
-0.2511583220407625,0.24664325113217983,-0.1658222735172944,-0.05030337810852604,-0.011377027252904823,-0.05543670894537343,0.017622581100571764,-0.03327819389968116,0.9977827533814583,0.0014642284417453128,1.6243480530121645e-05,-0.0007657207546612208
-0.10865475328874719,0.14326195363500388,-0.009077806441386761,-0.09645144642197048,-0.030006011996518565,-0.024707989917852967,0.023493036502166744,-0.027977049178606227,0.9988677228346972,0.001455150635303926,-9.241127275862555e-05,-0.0006224588010262169
-0.31134106845195986,0.24708877376517965,0.1181238450290828,-0.15835811587843326,0.05221763395410745,-0.01593225866974817,0.017247036726638878,-0.014847633765125906,0.99891256003244,0.0015732744803330088,-0.00040375234121058545,-0.0003753700272610372
-0.11392516088877921,0.2801409691287885,0.09536465498152583,-0.09197581206421059,0.003671817035999482,0.034516099952721487,0.014291345575273697,-0.020670949010933217,0.9993675205465484,0.0016686391353145345,-0.0005176775020993646,-9.52290581322487e-05
-0.09287820529317205,0.20385309238255453,0.1588089106049424,-0.11393107625602808,0.04417568501239415,0.04281763161332367,0.029035767025070262,-0.016290535781224316,0.9888643757908877,0.001827448045919477,-0.0006105557073925366,0.00010862403425030586
0.05638337443033275,0.19214608407040792,0.10298636095682318,-0.20812596936998315,0.05772138448665542,-0.014691312578925678,0.02145594630706436,-0.012234434014631736,0.9964952310989803,0.0019304344068763,-0.0005541723329622039,0.0003007701183207138
0.1369521233332627,0.14495122297229818,0.22322379222965077,-0.09319779507331563,0.07431395967448823,0.17741791075308452,0.02351292853458047,-0.0230276355381869,0.9925039638515759,0.002153658199105951,-0.0004172202096289412,0.00044572134129301197
0.07458121473480207,0.17401803723469172,0.22370812509778037,-0.1185517998435075,0.05230987131020114,0.10321397695724983,0.015365564211808378,-0.0106468648605021,0.9951076571958047,0.0023773663242037317,-0.0003426389948941392,0.0006197393785277038
0.14316313960444094,-0.0017564166556094801,0.14916478240848144,-0.09020332437368755,0.055074590501665806,0.11590679119813704,0.020842379759130187,-0.023769474304183715,1.0016410748204538,0.002526531106612213,-0.0001994758552896983,0.0006179829618720942
0.31539952427182494,-0.055392271228365396,0.23983687688974,-0.030564917013649884,0.012053082790636608,0.10865554789308185,0.022332984696536506,-0.017027709583057944,1.0087738341583963,0.0027663679835019527,0.00011592366898212669,0.0005625906906437288
0.36845886360721347,-0.1008840115092479,0.2206458557727035,-0.053452651129114924,0.07881131262272667,0.09387240497871559,0.02578043040270818,-0.027960128351874454,0.9961837153198407,0.0029870138392746565,0.00048438253258934025,0.0004617066791344809
0.4248938003718484,-0.14309896509367842,0.06418336753658177,-0.014223428218102652,0.03747793567548939,0.09449953134058094,0.02141497126334164,-0.027000273958831512,0.998794129180519,0.0030511972068112386,0.0009092763329611887,0.00031860771404080244
0.2635608934981858,-0.3069688710483363,0.10259143651316785,0.013385274931853331,0.008402277471273915,0.11388689609500552,0.02250671949547464,-0.020339244855177813,1.0029284922691781,0.003153788643324406,0.0011728372264593744,1.1638842992466149e-05
0.28382087171791726,-0.17031934150883138,-0.07102879835594338,0.04245443625649244,0.09432845854365887,0.060297258841482994,0.012504219803323956,-0.021660925131071675,1.0036853745036503,0.0030827598449684624,0.0014566580981772916,-0.00015868049851636525
0.41899916524733327,-0.17428453960293397,-0.0735517639884359,0.06403308905165457,0.02950385204042593,-0.008586536275840538,0.016381034219195133,-0.026974286320574588,0.9963797545226004,0.003009208080980027,0.001875657263424625,-0.00033296503811929923
0.4059107807117888,-0.32716533242019036,-0.16251109162533575,0.07491275463361777,0.025875026322710895,0.017553591766241012,0.02689276131816721,-0.020772589588746778,1.0029597849232836,0.002846696989354691,0.002281568044136414,-0.0006601303705394897
0.3448349678280458,-0.3161453682041046,-0.27425069516870715,0.0764822095287518,-0.04479065087595374,-0.0043109293329846015,0.023262240557172433,-0.01336908406390876,1.00414730266663,0.0025724462941859845,0.0026264030119644596,-0.0009762757387435944
0.41252816958551913,-0.5474645391046341,-0.23986869224341564,0.0964557855457038,-0.010923351084411415,-0.023944011174198247,0.01938804469311736,-0.0171335039098522,1.0028953751775815,0.002332577601942569,0.0030389311815499785,-0.0015237402778482286
0.2172279423635675,-0.3689155718267312,-0.4075821449965862,0.14415072097453183,-0.048747266094453144,-0.04773502666068864,0.023878046899976434,-0.01894714146515568,0.9924472222348375,0.0019249954569459827,0.0032561591239135463,-0.0018926558496749598
0.21119090623908893,-0.5602847398390353,-0.3397367760451235,0.17572504267217437,-0.11454893118211933,-0.039705043557240124,0.01287905103206674,-0.01976714589823844,0.9970238104267352,0.0015852586809008591,0.003467350030152635,-0.002452940589513995
0.18551905925790124,-0.43987227802458245,-0.2810907976144637,0.12048337359195642,-0.08330792342698423,-0.06824456963103183,0.01867027929726416,-0.0203729522421929,0.9983638182465823,0.0013041678832863956,0.003652869089410536,-0.0028928128675385772
0.18812676690367575,-0.32913470161607256,-0.26163108299094595,0.14047550111991805,-0.10230876137582307,-0.12267812787503486,0.02119265163461169,-0.011809585196072243,1.0010143289886446,0.0010425368002954496,0.003840995856314212,-0.00322194756915465
0.17279119104739316,-0.2889406721112218,-0.27321532597772574,0.10412930095787874,-0.09896938171062078,-0.16485646581083466,0.008307548604570383,-0.022744461241163347,1.0002297681991408,0.0007693214743177239,0.004013787047361605,-0.003510888241265872
0.05259049706351292,-0.24615231030112467,-0.32797934335073087,0.12253411644489783,-0.10584494112443751,-0.13980060060851218,0.01933474977907017,-0.01569202146978743,1.0008024029604305,0.00044134213096699306,0.004066377544425118,-0.0037570405515669966
-0.11943595193000146,-0.3342144261831132,-0.20252607867931835,0.115854947412788,-0.11905136167591804,-0.18106572052685446,0.01957363045345589,-0.019051865104579804,0.9956739001180591,0.00023881605228767472,0.003946941592495116,-0.00409125497775011
-0.0386423417126809,-0.09702098943810081,-0.19545715988435652,0.08837014216602165,-0.15567061264321383,-0.2230157505523389,0.01811065280432625,-0.022815015997463578,0.9869329108772398,4.335889240331817e-05,0.003908299250782435,-0.004188275967188211
-0.1544942096509063,-0.01411517583189554,-0.10450817847689248,0.029181826013517938,-0.09290014798156733,-0.10674826912363683,0.017882488182541602,-0.012204282795758078,0.9962268427580211,-6.114928607357431e-05,0.0037538050411315286,-0.004202391143020105
-0.24435047341032806,-0.08169492215730835,-0.13125421598555145,0.04191332640572233,-0.10161544736567554,-0.14250564383561842,0.020114144774310623,-0.015008945116297497,0.9991258855710538,-0.00019240350205912578,0.0035094545677212007,-0.004284086065177414
-0.3861233187845493,0.08545824164270081,0.025599908434915636,-0.050142962859204276,-0.07376496051991727,-0.08843196353353162,0.02216875515767012,-0.014666986518985467,1.0086811751256242,-0.00016680359362421013,0.0031233312489366513,-0.004198627823534713
-0.42399307753465465,0.07489466468215249,0.06558709262523263,-0.04626217847460041,-0.1443179128120281,-0.1122119308052325,0.013334183979349497,-0.01584402666614846,0.9984514951070769,-0.00010121650099897751,0.0026993381714019967,-0.004123733158852561
-0.4677921420134143,0.2131472081816458,0.10451210121320167,-0.13253408865799896,-0.05112254132163445,-0.013661599925177037,0.020943561647399064,-0.011013680562039708,0.9937145155936119,3.295600214224176e-06,0.0022315460293885823,-0.0039105859506709155
-0.388509676137311,0.27256518189361456,0.19918530694823802,-0.13521344705709687,-0.041151163948812436,-0.043673340899586695,0.022496526036839767,-0.020504103101556554,1.0057045060787577,0.0002024809071624622,0.0018430363532512717,-0.0036380207687773006
-0.4381465491805535,0.26530798986557436,0.35205917344402304,-0.11945917929703097,-0.08873733409539444,0.08156057866451578,0.02158921933249724,-0.0141560001349937,0.9991212765704395,0.0005545400806064853,0.0014048898040707179,-0.0033727127789117263
-0.6151662724059375,0.4179171211393516,0.3247974848591526,-0.20461102618676502,-0.030634039679620743,0.06356351429346084,0.018024136716637176,-0.010288154541231685,1.0058813007203011,0.0008793375654656379,0.0007897235316647804,-0.002954795657772375
-0.4875553936202339,0.4110780533701689,0.2240857658673528,-0.20221235570481763,-0.005400685887475469,0.0787185226061529,0.018857310688785763,-0.015894855569720936,0.9972698040206376,0.0011034233313329906,0.0003021681380445465,-0.002543717604402206
-0.5355205763134007,0.5205475417421774,0.41223292679411455,-0.19994889324579318,-0.010436596152544084,0.13706537938354119,0.02769739617265267,-0.023311448807695784,1.002159174421276,0.0015156562581271052,-0.00023335243826885424,-0.002023170062660028
-0.6102786132241467,0.4189034297451036,0.4126503300303641,-0.21506549224352867,0.036202480706663126,0.10212185821092634,0.016126424017920256,-0.009094800115944626,0.9975635396698032,0.0019283065881574694,-0.0008436310514930009,-0.0016042666329149247
-0.530789832221782,0.3678040144605227,0.2883605148998774,-0.19083399144926794,0.08103582677573219,0.17176222824794637,0.016379618768988843,-0.010734879685968837,1.0010595668293658,0.0022166671030573472,-0.001374420883714783,-0.001236462618454402
-0.4150076494475292,0.32532624304240765,0.3300626796434578,-0.20248594980612408,0.05150777370774744,0.14762674624825672,0.01684425241096902,-0.015050053541820381,0.9979478313907362,0.0025467297827008045,-0.001789428533162312,-0.0009111363754119944
-0.5633929076442248,0.4140923332165372,0.12292078045981061,-0.17571500483210756,0.04012275351468176,0.17274230376677285,0.01906622155814425,-0.015991350385112083,0.990194948642726,0.0026696505631606153,-0.002352821440806537,-0.000497044042195457
-0.41359302894444105,0.3159478678440611,0.15068282691756302,-0.14410784879673988,0.06392627093245669,0.18524376952423152,0.01263584365795195,-0.012117677216596155,1.0017999962240898,0.0028203333900781785,-0.0027664144697509777,-0.00018109617435139593
-0.42774963908571273,0.2859619099354557,0.06215864909134196,-0.07753937102925632,0.10778156399640502,0.0990866463961236,0.00997432278217427,-0.013789483478563866,0.9944567676982057,0.0028824920391695204,-0.0031941641088366907,0.00010486573558405983
-0.26014910394104335,0.24809176366164395,0.06926445293444214,-0.06131556960461346,0.08233690886464505,0.11731152175945943,0.016950612249064103,-0.01209107613533782,0.9986348327475519,0.002951756492103963,-0.0034543132127777343,0.00035295749924570374
-0.32252281420323414,0.12741879962462568,-0.007887604392127198,-0.04637663517677949,0.08891321227931154,0.1278987705929275,0.023027922180445318,-0.013358468903754608,1.002320596963522,0.0029438688877118356,-0.0037768360269809682,0.00048037629887032944
-0.17441509924678497,0.09653147729963313,-0.15574928179647002,0.007321443893423143,0.07637493672642616,0.07116317832535812,0.00696050442819199,-0.025632974791042706,0.9894545788863053,0.0027881196059153656,-0.0039512511262277525,0.0005769077761699626
-0.1071272553168312,-0.042555578522364274,0.031902951848140695,-0.0001847519275591982,0.09838081627929458,0.10443287173783182,0.010398589748741333,-0.011568639985232894,1.0010710293826286,0.0028200225577635065,-0.004058378381544584,0.0005343521976475984
0.004750083823272606,-0.03617447640119302,-0.07118685209754194,0.1350189452515143,0.14574124695734572,0.035944333601506256,0.016014847348728958,-0.01489205461488432,1.0007680162922248,0.0027488357056659647,-0.004053628297721312,0.0004981777212464053
0.07299362636600046,-0.17257243515384568,-0.09385566112111415,0.12489857069592863,0.09239588908108255,0.017488818517521307,0.012335241853237422,-0.011238167143738322,0.9986939055104732,0.0026549800445448504,-0.003980634671355311,0.00032560528609255966
0.24315951421535723,-0.29925548986572137,-0.12610452842371594,0.16910965068361244,0.10773232069742211,0.00602050761490221,0.018452896576562502,-0.017950448272857886,0.9995569411135671,0.002528875516121134,-0.003737475157139954,2.634979622683825e-05
0.18340913254039032,-0.351346165789301,-0.16047979000804818,0.18161202777734872,0.0459638727775738,0.013567375549900075,0.017594828086899723,-0.01149724641245038,0.9975812646868697,0.002368395726113086,-0.0035540660245995635,-0.0003249963695624628
0.3759541865876778,-0.22707213915630486,-0.20158155879886486,0.23650903140982574,0.11883401964528423,0.015852787424235466,0.010528734967583999,-0.009171546487621607,0.993784422372572,0.0021668141673142206,-0.003178111838011886,-0.0005520685087187676
0.40575831068946583,-0.1998041425272488,-0.07217528280116879,0.18866567260331615,0.040926467965520054,-0.07980710808459444,0.020601679011724355,-0.017180681297616136,0.9909451400687853,0.002094638884513052,-0.00277235352732242,-0.0007518726512460164
0.4862579225009076,-0.24933216753113047,-0.10412977333821824,0.23036608561901353,0.04824005893757848,-0.050470377976751725,0.022722035892227793,-0.006882797497506403,1.0043394185739605,0.0019905091111748338,-0.0022860956048215125,-0.0010012048187771469
0.36632933831175624,-0.3468118626241452,-0.031467022920836606,0.23015387589630687,0.044281514687954604,-0.06839627103574533,0.019626800330724295,-0.006249158944170835,0.9984147089069133,0.001959042088253997,-0.0019197662665097562,-0.001348016681401292
0.5320205828654674,-0.2084473762825931,-0.11871659166240676,0.2741384462499753,-0.006371861450569186,-0.07661654640730708,0.015351116323823579,-0.011951120162148908,0.9931282185629302,0.0018403254965915904,-0.0013877456836442889,-0.001556464057683885
0.6461799534254387,-0.31975734107981824,-0.014751930685136989,0.22136796008021228,0.07321132318008614,-0.08694190258593877,0.017002574192191932,-0.010392393447120837,1.0012628433108683,0.0018255735659064535,-0.0007415657302188501,-0.0018762213987637034
0.585767581354872,-0.2629919034471146,0.10504398895618935,0.19398753548958822,-0.030293579079117915,-0.10248323971940244,0.013259268286901375,-0.016379494002054906,0.9967967291815276,0.0019306175548626427,-0.00015579814886397815,-0.002139213302210818
0.5878359590336791,-0.21461288357089664,0.09812990001258332,0.15192782344878344,-0.029109483722846437,-0.04325680660576497,0.022450481233850243,-0.012235343306105187,1.0003007418341447,0.002028747454875226,0.000432037810169701,-0.0023538261857817145
0.5686313721929035,-0.07515243535515456,0.02229493301586573,0.15993138294008719,-0.08164718955278263,-0.09303245346603091,0.019771071249072847,-0.0047636191545714435,0.9949656069610805,0.002051042387891092,0.0010006691823626044,-0.0024289786211368694
0.5675236728528359,0.143436133081835,0.15877027940991673,0.10829000563048982,-0.03629691216431112,-0.07116835498231243,0.02353644066741315,-0.011516489605839746,0.9961178241351852,0.0022098126673010085,0.0015681928552154405,-0.002285542488055034
0.41848492145003535,-0.016188173812639886,0.024594415460287844,0.0684603282559756,-0.06370237956968468,-0.10275180320099873,0.017834864450688135,-0.008434409199708781,0.9869103104562145,0.0022344070827612964,0.0019866777766654755,-0.002301730661867674
0.42377113241088016,0.21196846511217055,0.32286180964093664,0.06132129708271497,-0.08089400311002498,0.008066684036681034,0.011193377366757011,-0.008696596043130365,0.9910335232957481,0.0025572688924022334,0.0024104489090763562,-0.0020897621967555036
0.30761355776794547,0.21745113111791142,0.21488188833688915,-0.006040452006509517,-0.05136504432353555,-0.006412621985014045,0.0143366036563818,-0.014254143157439836,0.9974059910899106,0.0027721507807391224,0.0027180624668443018,-0.0018723110656375921
0.18522145051829472,0.2413782077212327,0.16104721461287227,-0.05510266786720561,-0.031570369931179176,0.05813670861983358,0.017856684018181388,-0.01623561414438701,0.9912612573747486,0.0029331979953519946,0.0029032839173625965,-0.0016309328579163591
0.299292623508727,0.2911830346506677,0.12869219020472641,-0.057275496436047235,-0.09890553006353643,0.05230470601381521,0.0081443133865335,-0.01743240798459382,0.9931987152225913,0.003061890185556721,0.003202576540871324,-0.0013397498232656916
0.21197353239136565,0.3211641686143629,-0.01091825403169032,-0.010640388382473064,-0.07661818317362022,0.08304484449255986,0.019358910068131,-0.012765433005001544,0.9956442121397315,0.0030509719315250307,0.0034145500732626895,-0.0010185856546513286
0.15935646315210972,0.3803690726190105,0.19872052811083485,-0.060858352367806394,-0.0833307089278101,0.1060372947516702,0.015976417210816718,-0.013170806556660182,0.9942816516174567,0.0032496924596358656,0.0035739065364147993,-0.0006382165820323181
0.10066584010403853,0.1620316581136505,-0.04258391937843037,-0.11768476636637257,-0.08986206612238609,0.12061866294459662,0.00491841945059068,-0.00837858755449036,0.9971155509928379,0.003207108540257435,0.0036745723765188375,-0.00047618492391866753
-0.05490980140196558,0.2156778380759498,-0.081011275058108,-0.10332740675390506,0.027803594696681172,0.06632800051125698,0.009958992157357969,-0.009887287215440714,0.9973486405699289,0.0031260972651993273,0.003619662575116872,-0.00026050708584271775
-0.17803877796265502,0.27523272888634653,-0.15228701413966245,-0.09695527791828978,-0.006184681803831322,0.09648614236559228,0.01630523170460947,-0.011136625900581646,0.9994687075452464,0.0029738102510596647,0.003441623797154217,1.4725643043628834e-05
-0.1306484629200513,0.155347406750101,-0.13014456010794756,-0.08724027954586362,-0.07177994209985225,0.08723443986897479,0.019273258003677813,0.0005039694003462717,1.001715954349205,0.002843665690951717,0.0033109753342341654,0.00017007304979372985
-0.20564298011957832,0.1812664179966707,-0.2078975843204864,-0.14924689825322077,0.007719530569572231,0.07435546421632293,0.015939332343369177,-0.003541967543364213,0.9971821919917495,0.002635768106631231,0.003105332354114587,0.0003513394677904006
-0.1291689884849813,0.060178765688195024,-0.26273350160678693,-0.08946812927962337,-0.045853298415817915,0.048198360618990015,0.012104730188468032,-0.004234776476130757,0.9974824293652538,0.0023730346050244437,0.0029761633656296056,0.00041151823347859555
-0.33574335572092284,0.0056390118434989644,-0.2722410568610766,-0.08949876627900859,-0.014334119011359402,0.04528457480236932,0.010232792852305718,-0.01599400754156522,1.0000179358456338,0.002100793548163367,0.0026404200099086825,0.00041715724532209454
-0.24176505681917382,0.061241335994923374,-0.3320602396704022,-0.03994338014754922,0.03117284797428714,0.040355037692418556,0.006651576621529327,-0.013613089238722183,0.9933472183958133,0.001768733308492965,0.002398654953089509,0.0004783985813170179
-0.3926782824925269,-0.15428862981561917,-0.21605735200866982,-0.06138203269631484,0.05848438507415486,0.022340167772911486,0.01996369926771936,0.005581731449086757,0.9878319081086587,0.0015526759564842953,0.002005976670596982,0.00032410995150139877
-0.3762709949381463,-0.1310038470474064,-0.16766891051071006,-0.016207488472574787,0.06852011642229247,-0.00999028142769678,0.00363267216559204,-0.002250423315330031,0.9948810243081538,0.0013850070459735851,0.0016297056756588357,0.0001931061044539924
-0.3928463280515323,-0.24728811089381905,-0.24561396339342417,0.01039194652918992,0.063746437189151,-0.09546885699934991,0.015308800537086093,-0.00597499749962283,0.997827604017638,0.0011393930825801609,0.0012368593476073033,-5.418200643982668e-05
-0.43669813093970145,-0.3780077332272194,-0.38034375779874285,0.00536372741074395,0.06998875514644606,0.02389522127400242,0.021131457150656452,-0.012596370423940278,0.9918213207379524,0.0007590493247814179,0.0008001612166676019,-0.0004321897396670461
-0.39028279234475227,-0.42480533603121795,-0.03934280196040593,0.07097840156218357,0.070055020552962,-0.16648800017341175,0.01095586759971922,-0.007362949139582392,0.9877423914641161,0.000719706522821012,0.0004098784243228496,-0.0008569950756982642
-0.2599984219548488,-0.29401304685840174,-0.09003375184595501,0.08926545131007703,0.08191948357995361,-0.11466396691647975,0.0047676281663511875,-0.009725944134500997,0.9873771291309411,0.0006296727709750571,0.0001498800023680008,-0.0011510081225566658
-0.2404051267013303,-0.3090968440456766,0.07255192514756675,0.10126746113032918,0.04237110193433007,-0.12950272770547647,0.010006041812466377,-0.014293029975829645,0.9985308818608245,0.0007022246961226237,-9.052512433332948e-05,-0.0014601049666023427
-0.20163032354416827,-0.45084473173509976,0.05812776237616729,0.11174073868669433,0.022565661201528926,-0.10649184768913826,0.014012138998168687,-0.018202669090929942,1.001354047498342,0.0007603524584987912,-0.00029215544787749773,-0.001910949698337442
-0.1782859771582912,-0.5152847606963348,0.10951603703235507,0.10042409867326031,0.05056156647048855,-0.1867908569584122,0.013759284885467205,-0.0041384345991201015,1.0064313922480534,0.0008698684955311463,-0.00047044142503578894,-0.002426234459033777
-0.08401724545883629,-0.4338876654878592,0.14250509986894583,0.15743640533359043,0.0788127352150338,-0.07017615356553566,0.006872976497393966,-0.005282957118505441,0.9995737173015815,0.0010123735954000923,-0.0005544586704946253,-0.002860122124521636
-0.06949951076821369,-0.34087663392925793,0.16657820992080746,0.153371662650115,0.0049661287135203125,-0.12977453852018156,0.016021610282742876,-0.007314844006814131,0.996263273789552,0.0011789518053208997,-0.000623958181262839,-0.0032009987584508946
-0.030360523958586547,-0.24266955490311404,0.26747370204913423,0.11473969660607015,0.005691728146345769,-0.11149538329461549,0.009803099671772304,-0.003530770825830992,0.9948876251081821,0.0014464255073700339,-0.0006543187052214256,-0.0034436683133540085
0.029317878266005598,-0.416368762297106,0.3747171574056924,0.10330651335716452,0.016042160279584276,-0.05289609526129737,0.01592585245210923,0.00026752422285486466,0.9915147508470845,0.0018211426647757264,-0.00062500082695542,-0.003860037075651115
-0.05131463751843554,-0.13914084762241077,0.28070411728196654,0.0987489348044173,0.00792687364376569,-0.08580901817676954,0.013161807700274466,-0.006541796944390167,0.9981692147550247,0.002101846782057693,-0.0006763154644738555,-0.003999177923273526
0.12236838349923854,-0.13780701066960113,0.31780182911538957,0.09544341249622744,-0.0017443773280904013,-0.03713430505499035,0.01672555642906809,-0.0029459953519357916,0.9960572096472976,0.0024196486111730826,-0.000553947080974617,-0.004136984933943127
0.1783736844132775,-0.12586967967703802,0.44933832291789266,0.06122166201131514,-0.058019016752482305,0.0102614268812782,0.01337150327352411,-0.00715841831630138,1.0004432649624482,0.002868986934090975,-0.00037557339656133946,-0.004262854613620164
0.20744828855904093,-0.011884007702846859,0.2326060910692237,0.0113719176669338,-0.02850562662527048,0.06238244200031393,0.011983519934840405,-0.002717482158763462,0.9887362241651184,0.0031015930251601987,-0.00016812510800229857,-0.004274738621323011
0.21831276259001367,0.15633929296243965,0.24432473765197316,-0.029860036538266573,-0.038993066715751944,0.04221727830622848,0.011877896780536192,0.0016419101905774088,0.9942391051503405,0.0033459177628121714,5.0187654587715127e-05,-0.004118399328360571
0.3390475069249022,0.13007534908238183,0.08669427343949118,-0.03527703533989849,-0.10557951766806409,0.148354738925302,0.005446816845330146,-0.006368424794011351,0.9908831788468235,0.003432612036251663,0.00038923516151261734,-0.003988323979278189
0.22157818326092998,0.231228031289726,0.22015668177081044,-0.06931828031467402,-0.11263117165445131,0.14461915354362037,0.02395811448969734,-0.003265668807336351,1.0065390092340925,0.003652768718022473,0.0006108133447735474,-0.0037570959479884627
0.32696677834881444,0.1883515041519545,0.13336622848786076,-0.14614690432447308,-0.040529920126531324,0.12852395701950914,0.012577944603512492,-0.003112113145144424,0.9990846930403053,0.003786134946510334,0.0009377801231223617,-0.0035687444438365088
0.35222264591891933,0.32043795388185414,-0.03113420974821251,-0.11710806233036111,-0.06664975485994697,0.16223092837221284,0.015012362623669792,-0.0030921291317551874,0.9931331080665454,0.0037550007367621215,0.0012900027690412811,-0.003248306489954655
0.2383811569126128,0.3929157268954021,-0.08350830081360355,-0.21478284671638462,-0.1274652244484107,0.15745358031605367,0.012761223099095826,0.0024214362183642307,0.9928538449733474,0.0036714924359485183,0.0015283839259538938,-0.0028553907630592527
0.22415364723677167,0.4517030617080007,-0.009990117173940577,-0.16764721854083597,-0.11612201679702058,0.14139491295559464,0.015305402735463011,-0.005781751761923977,0.9932659121781496,0.0036615023187745776,0.0017525375731906653,-0.002403687701351252
0.26677679115666886,0.41346309334996606,-0.0754062543862458,-0.19689795518955486,-0.13271547190814248,0.20113390322454267,0.01565832878333616,-0.007483689790859033,1.0005433131737629,0.0035860960643883315,0.0020193143643473343,-0.0019902246080012857
0.1717384984634549,0.4291945131551947,-0.15278009352704394,-0.2107466407401252,-0.14580982077560045,0.19052527295041347,0.021636736292055918,0.00018619966738242337,0.9951102351148545,0.003433315970861288,0.002191052862810789,-0.0015610300948460912
0.07895573766074018,0.409584952795359,-0.10586123785789076,-0.18622265214280298,-0.11057853168946348,0.1476869662519376,0.010057267121389749,0.004751360147359105,0.9916923043055266,0.003327454733003397,0.0022700086004715293,-0.0011514451420507321
0.1228977957324844,0.4107940068411595,-0.12437032655630982,-0.19579070977107368,-0.06934162810671872,0.11437849957752591,0.01791109170393668,-0.004757964172136195,0.9946910534781066,0.003203084406447087,0.002392906396204014,-0.0007406511352095726
0.05882729759457109,0.33152656365079847,-0.19446725738531345,-0.19293894631944877,-0.025546377252680157,0.10360588374376031,0.01398828802189699,-0.008114583681302514,0.990283956965022,0.0030086171490617737,0.0024517336937985848,-0.0004091245715587741
-0.0013061051387647862,0.2791309802801023,-0.09869771747420418,-0.11902567555480631,-0.1284159164297206,0.042158648121980356,0.0028652251489601037,-0.002003571763534255,0.9892410958388858,0.00290991943158757,0.0024504275886598204,-0.00012999359127867184
-0.0017070226849262016,0.3395508569612369,-0.0660165146933201,-0.0696200978042352,-0.0446835573561471,0.05680785069086764,0.014195506591976758,-0.001969918819724833,0.9919103294008116,0.0028439029168942495,0.002448720565974894,0.00020955726568256509
-0.08750066009502183,0.27055342245539465,-0.10391984976261134,-0.1613384524895098,-0.013434388491563115,0.04766011732321683,0.017878682459335774,0.0019644567809677335,0.9935640673795988,0.0027399830671316384,0.0023612199058798723,0.00048011068813795976
-0.2577358245757918,0.28754705115336865,-0.0937074764288998,-0.058293684801936155,0.004327489759291507,0.017842161272805114,0.01415187653067933,0.008369668335812278,0.9866690126838646,0.0026462755907027385,0.0021034840813040803,0.0007676577392913284
-0.328025814805019,0.083354128855662,0.04592092294879353,-0.021866221918680796,0.038058631013684265,-0.07389970201618391,0.005955532611515688,0.004010767505240841,0.9927248670121221,0.002692196513651532,0.0017754582664990613,0.0008510118681469904
-0.4053359309200214,0.02597095419681217,0.03792995501782466,-0.011638742582912401,0.053912066220162605,-0.018952572396989692,0.017719583848351046,0.0007911223522538134,0.9942267735384493,0.0027301264686693566,0.00137012233557904,0.0008769828223438025
-0.3598301445393123,-0.0026927911123292778,0.03131154604897941,0.1581657264622426,0.009386471934022412,-0.10089220189199799,0.015049683741734043,-0.004352003427787533,0.9993817484911632,0.002761438014718336,0.0010102921910397277,0.0008742900312314734
-0.41856368504669433,-0.21534927050900543,0.011439638130171653,0.0934685255980658,0.10203305037505125,-0.009906042735730322,0.006854958990649321,-0.002764277991227637,1.0060056526151988,0.002772877652848508,0.0005917285059930336,0.0006589407607224679
-0.463201349149814,-0.19266882946995723,0.040968560690198205,0.0963650064633626,0.11053882406408909,-0.07504822362364258,0.000979522266542283,-0.006465240760026944,0.990881396617333,0.002813846213538706,0.00012852715684321954,0.0004662719312525107
-0.4947739616097064,-0.27027366667752034,0.21045533691715668,0.15983183685574412,0.08469417034767052,-0.09615695033533234,0.012669464259269972,0.0013953147094609977,1.000012722438899,0.003024301550455863,-0.0003662468047664869,0.00019599826457499032
-0.5228548790865114,-0.25768543562582974,0.2296442756781001,0.24264659497411808,0.065449374022457,-0.08762404735483549,0.015146758454062421,-0.003236822833724753,0.9909379319937984,0.003253945826133963,-0.0008891016838529983,-6.168717105083943e-05
-0.5616684070694424,-0.2017028251600844,0.11137384144037192,0.264792656160492,0.028076952302941948,-0.05225066285315184,0.0029880081157840754,0.002868154100568985,0.9999087240515966,0.0033653196675743346,-0.0014507700909224407,-0.00026338999621092386
-0.4425074031921912,-0.36111790636157476,0.17972843964625662,0.31389147589858474,0.10093215850953187,-0.04653218110834916,0.018138223253649263,0.003698050564306523,0.9927147481328328,0.0035450481072205916,-0.0018932774941146317,-0.0006245079025724988
-0.5917529225295567,-0.22102845538863586,0.10351812430659224,0.26413921986147537,0.06528790839752986,-0.10608245791089464,0.0055049632004882994,0.0006696851546660239,0.996387272272053,0.003648566231527184,-0.002485030416644189,-0.0008455363579611346
-0.5897922574939226,-0.1980486102129723,0.034938392917183606,0.18358892113059738,0.07505846583506193,0.03211244410325831,0.010962862175886,-0.0009271854118739523,0.9981928575805844,0.003683504624444368,-0.0030748226741381113,-0.001043584968174107
-0.6134115556885427,-0.3381167270606558,0.12493599513892523,0.20810129252853188,0.073937726815659,0.014673330178691397,0.009017877591920659,0.00043816309099612826,0.9895101759564472,0.003808440619583293,-0.0036882342298266545,-0.001381701695234763
-0.47631061323350077,-0.24042736339464627,0.0004748662781650266,0.20651855759946575,0.05537285608965423,-0.0024382774791884606,0.013950111369198083,-0.001374897473678179,0.9885278755897984,0.003808915485861458,-0.004164544843060156,-0.001622129058629409
-0.44247178756781846,-0.0634780882895695,-0.07954531012833413,0.19822573213163303,0.04565350181990687,-0.024637369004023316,0.014574036854589016,-0.0029573569574814955,0.9881755196120534,0.003729370175733124,-0.004607016630627974,-0.0016856071469189785
-0.3028163539144748,0.040961137624884986,0.037934101657727315,0.13997372474076247,0.007678199324738168,0.11335395262700579,0.00763315818584819,0.008331062086635936,0.9860222544481599,0.003767304277390851,-0.004909832984542449,-0.0016446460092940937
-0.35421398677192384,-0.049718681524989566,-0.16053447145584648,0.10824042252057284,0.06318525298074268,0.080482895052489,0.018239416822066284,0.00015960628179427245,1.006663057101215,0.003606769805935004,-0.0052640469713143715,-0.0016943646908190832
-0.1412947159013098,0.021691963828679516,-0.33597430824440316,0.10004124154370869,0.018472429190232773,0.0968783758011142,0.01426842085208054,-0.0011411766816396575,0.9930890166017456,0.0032707954976906014,-0.005405341687215682,-0.0016726727269904037
-0.10670604435806626,0.045556088388928655,-0.2059561244532479,0.0902226488873638,0.011723872117285185,0.07526960212986407,0.01140848648552479,0.0025497797614271946,0.9898517127169065,0.003064839373237354,-0.005512047731573749,-0.0016271166386014752
-0.10718061873810858,0.02674283103227429,-0.2276530354904155,0.10074010040703904,0.05207126376327732,0.06568508905016152,0.011092981512951697,0.007578463562503533,0.9952878808603604,0.0028371863377469383,-0.005619228350311856,-0.001600373807569201
0.07794495126895598,0.31888405294604905,-0.23343034748185876,0.05064251483408749,-0.04731833813378339,0.12823101993566774,0.008364755783586177,0.0001724793239910186,0.9903436772920047,0.0026037559902650793,-0.005541283399042901,-0.0012814897546231517
0.21242310262759456,0.17492714089415654,-0.3746406223162443,-0.005918872358193907,-0.038814318906555324,0.10778359458797765,0.006638066614693674,-0.010096209250588427,0.9816478191014226,0.0022291153679488353,-0.005328860296415307,-0.001106562613728995
0.1293142945757254,0.24982601496552914,-0.28593351119655297,-0.05921557439025399,-0.024022604234015955,0.07346912573664964,0.015945326900733442,0.0003457065749206301,0.9900118330736182,0.0019431818567522822,-0.005199546001839581,-0.0008567365987634659
0.35447999836784094,0.20301337085519644,-0.29355398261141835,-0.07162248726825823,-0.028884482215760836,0.09639143725132594,0.0182826857971077,0.004745238670788849,0.9960279139940307,0.0016496278741408637,-0.00484506600347174,-0.0006537232279082694
0.3644378450224668,0.12999029771493445,-0.2350206256856416,-0.08275421069083604,-0.06745498696512696,0.041144450504763355,0.013467795256223908,0.0010435167106261551,0.989640861001936,0.0014146072484552221,-0.004480628158449273,-0.000523732930193335
0.4778020458285295,0.2961347739478334,-0.24602836466936234,-0.13899219658856854,-0.05889987587699644,-0.016334540465530713,0.005226754402552786,0.007261306578680464,0.9877998401901534,0.0011685788837858598,-0.004002826112620744,-0.00022759815624550162
0.4531284161020599,0.17781055064499615,-0.21935700331406704,-0.15885471006508822,-0.13974133873810587,-0.04349520776778296,0.009189961825060114,0.0058611712654719796,0.9902664418398222,0.0009492218804717927,-0.003549697696518684,-4.978760560050546e-05
0.4740116909274103,0.24690007354400653,-0.05564037622062449,-0.13421171800380224,-0.10164979755670361,-0.055823633305951074,0.009133519207962475,-0.005885506804413123,0.9933956402876603,0.0008935815042511682,-0.0030756860055912733,0.00019711246794350108
0.5668316968121037,0.1956739880240312,-0.014230313236481636,-0.12381672233282946,-0.05144769175466513,-0.06338399102640542,0.005003576130202976,0.0004980268449312811,1.0021323976335634,0.0008793511910146867,-0.00250885430877917,0.00039278645596753223
0.48711514239323234,0.1665224805681899,0.035193959293033664,-0.13432313654131797,-0.07939118952303552,-0.07005870851940625,0.006274830100313202,0.011765209884863664,0.9948540620587538,0.0009145451503077204,-0.0020217391663859374,0.0005593089365357222
0.5760959364225492,0.12081526475013755,0.13950569177284589,-0.08473261357204162,-0.06620772500456541,-0.1073360753552315,0.0006522669471671922,0.002123024713281351,0.9900384068732349,0.0010540508420805665,-0.0014456432299633879,0.0006801242012858599
0.5428999495443314,-0.0038809363047780498,0.13760404425484346,-0.07506262415697522,-0.04426129924709858,-0.07028906183698823,0.007978620322217987,-0.0012448958771766883,0.99233701968246,0.00119165488633541,-0.0009027432804190566,0.0006762432649810818
0.4875635750858653,-0.05255105898679831,0.28272724235495084,-0.07786518544545169,-0.029433567642042337,-0.12992959459506145,0.006983215587449015,0.004520441924430951,0.9884483451609455,0.0014743821286903604,-0.00041517970533319127,0.0006236922059942835
0.3917408212907654,-0.118588850411007,0.295703154361003,-0.04583859027719319,-0.05946927878567652,-0.11259968996990051,0.00037278065958798456,0.010829864701828503,0.9973575557273309,0.0017700852830513634,-2.3438884042425837e-05,0.0005051033555832765
0.4039953873420279,-0.2512807493945817,0.33697125307731784,0.055474133836346924,-0.03546553723764794,-0.14370707523331921,0.014883942862721183,0.004779732839275901,0.9928477010834051,0.002107056536128681,0.0003805565032996021,0.00025382260618869474
0.39773725644393054,-0.2809633470653328,0.3250153415588178,0.06451897722858285,-0.04250797311390128,-0.1261578782748771,0.0020679865072074713,0.0009933676748882705,0.9905299677768832,0.0024320718776874987,0.0007782937597435326,-2.7140740876638092e-05
0.4261412740022931,-0.2545862033697591,0.2875287911078833,0.04806881052935026,0.002145751746592754,-0.11659975772554311,0.012884495943903933,0.013351037337282072,0.9930400090105563,0.0027196006687953823,0.0012044350337458258,-0.0002817269442463972
0.2579382989024556,-0.4081034052371875,0.31973301115217984,0.07310810568880251,-0.037161351621682825,-0.11163014389953928,0.007447160156053864,0.005342516611569195,0.9945173284388183,0.0030393336799475618,0.0014623733326482816,-0.0006898303494835847
0.23073770719317932,-0.4594966528124424,0.29193663121333313,0.1339731751557426,0.03526756437008372,-0.0636877317976124,0.009877826522905522,0.005000751556707504,0.9853149073805582,0.003331270311160895,0.001693111039841461,-0.0011493270022960272
0.04994985679700162,-0.42962814114742165,0.22708811148658076,0.15193672634099553,0.012484554671083234,-0.12113533070472306,0.011281520649217266,-0.0016787314769276078,0.9875735086934565,0.003558358422647476,0.0017430608966384625,-0.001578955143443449
0.1011531502718547,-0.5052171538186924,0.16586077387892467,0.10156971391069833,0.03766489841496496,-0.04270036558983906,0.007526608221910018,0.005885386853725929,0.9878846367639691,0.003724219196526401,0.0018442140469103173,-0.0020841722972621416
-0.07785803932669043,-0.48447680629708856,0.16167542271857682,0.11783301826181691,0.04357277018983524,-0.029035417961429902,0.017284749037405595,-0.0005598683274347918,0.9957003180558345,0.0038858946192449778,0.001766356007583627,-0.00256864910355923
0.05678095865952028,-0.464642437179497,0.10443177445646766,0.13771642886035163,0.0810787302164764,0.004186567424529022,0.009853286872291232,0.005985635910498516,0.9953625219980317,0.003990326393701445,0.0018231369662431473,-0.003033291540738727
-0.09194878929665512,-0.39775605873745506,0.13704098397899034,0.1488090135136895,0.06978882025973165,0.033362595205454156,0.007735040110756764,0.013393352248851976,0.9938618783080126,0.004127367377680436,0.001731188176946492,-0.0034310475994761822
-0.0999226220628261,-0.2563246253149778,-0.09473364496943962,0.11798544500880058,0.040742257807609705,0.05051140782679386,0.008581231696361512,0.0005796942977351806,0.9849345505760921,0.004032633732710997,0.0016312655548836664,-0.00368737222479116
-0.23335955148193005,-0.2948291328273287,0.008661722150506895,0.14958387221430602,0.057122646497214866,0.06750586857601187,0.01791588771755982,0.003190244380789245,0.99866690387727,0.004041295454861503,0.0013979060034017363,-0.003982201357618489
-0.15016531129929572,-0.138740529116665,0.02476433172537232,0.11674560372613156,0.01701492284412303,0.07519264446451739,0.0032221641110777464,0.01660384994573745,0.9931734830171873,0.004066059786586876,0.0012477406921024402,-0.004120941886735153
-0.3974869079673126,-0.03336782918742556,-0.0677705193182884,0.01349416472891988,0.0016483343204637914,0.11965675367732896,0.008959451651489864,0.008444269604945192,0.986942129847412,0.003998289267268587,0.0008502537841351276,-0.004154309715922579
-0.24833457152151037,-0.07137334867914703,-0.023688857128800672,0.07125679998555719,0.07848367448979134,0.18399356096469185,0.008758771653982374,0.0018782445284157585,0.9882091231137203,0.003974600410139787,0.0006019192126136173,-0.004225683064601726
-0.334702582778432,0.09718816324845395,-0.2720791143404231,0.029436652569909183,0.00610812739581364,0.16799303481125014,0.010363913896302111,0.01041447553855169,0.9862721209290535,0.003702521295799364,0.0002672166298351853,-0.004128494901353272
-0.34463484942383843,0.16370148860505168,-0.15847265185269532,0.00022383107473298962,0.01071139540191958,0.19682149749368893,0.006383220145575062,0.006183440192413577,0.9949211032710792,0.0035440486439466687,-7.741821958865319e-05,-0.0039647934127482205
-0.4071324688886526,0.12603978700389284,-0.15337232767473377,-0.056475739664958925,0.00174005766663569,0.13930202872336683,0.008764141578333245,0.006395198294059176,0.9836031852110177,0.0033906763162719353,-0.0004845506884773058,-0.0038387536257443278
-0.3284980027588366,0.17579062837490744,-0.14429532062594916,-0.08564048784053643,0.02731590890532376,0.1786942797560732,0.013820517854162629,-0.0007740614866026535,0.9928411098012048,0.003246380995645986,-0.0008130486912361424,-0.0036629629973694206
-0.25209843502583856,0.3940428827889926,-0.12240168951610192,-0.12597975905366454,0.022177378105299687,0.14785311097678158,0.0029006676269105833,0.01077198237270293,0.9936615257615702,0.0031239793061298843,-0.001065147126261981,-0.0032689201145804274
-0.3685090502059568,0.3703296541081819,-0.061156656458239755,-0.1071781587290433,-0.046775815375076926,0.10400870116440362,0.002816361771437361,0.009684627632094453,0.9892487553356649,0.0030628226496716444,-0.0014336561764679377,-0.0028985904604722458
-0.3464674759561679,0.4521002751660839,-0.024714015419623835,-0.1663576192848562,-0.07115891972632715,0.11600151221298734,0.00254480904512248,0.012319633505756426,0.9936063767687432,0.0030381086342520206,-0.0017801236524241056,-0.002446490185306162
-0.12432017044508802,0.5286432328699866,0.035076959242331784,-0.209786932233178,-0.1063136404153706,0.07747263787699854,0.003181423221966028,0.00853511924953389,1.0022386894433746,0.0030731855934943526,-0.0019044438228691938,-0.0019178469524361752
-0.16849604686766723,0.4231979144218168,-0.0031357067018038254,-0.1784913806832696,-0.10391251653709614,0.04037323532018088,0.0027555761267139866,0.00543698102677443,0.9822530562608741,0.003070049886792549,-0.002072939869736861,-0.0014946490380143586
-0.22904823506550662,0.43659954500803644,0.111824033836543,-0.2143681197671856,-0.08815299176108368,0.030797023932997387,0.007152974058855676,0.0017833447031216278,0.9910918718896747,0.0031818739206290916,-0.0023019881048023673,-0.001058049493006322
-0.11722864299578792,0.3123954320161003,0.22783193061885632,-0.23397278258861406,-0.13524345829810758,-0.003408733641712177,-0.0003662544985065675,0.01876049226286272,0.9799146847262975,0.0034097058512479483,-0.0024192167477981555,-0.0007456540609902217
-0.0520805602881845,0.41545694172677566,0.2496382053045153,-0.20470481079569178,-0.08183353319826887,-0.08421888427802737,0.01397095369385747,0.004156247257145066,0.9778787536798247,0.0036593440565524634,-0.00247129730808634,-0.0003301971192634461
0.07230321841804441,0.4442059020879788,0.2452862888683449,-0.22989263317012826,-0.09302502117389204,-0.04786042449558393,0.010119318325197675,0.0014992061180081114,0.9866287510043602,0.003904630345420808,-0.0023989940896682956,0.00011400878282453276
0.0400437165230421,0.3377021273675082,0.15206539745314177,-0.12492145508749963,-0.139292900295865,-0.06510083114437744,0.005254997566700812,0.02114574574077722,0.9872244950638911,0.00405669574287395,-0.0023589503731452537,0.000451710910192041
0.1905784472723887,0.18654688984644652,0.08263317960183617,-0.08872335035984981,-0.10881789531888304,-0.07005217165318448,0.013518964474792002,0.007103285167430136,0.9958547555987,0.004139328922475785,-0.0021683719258728646,0.0006382578000384875
0.26193468840563844,0.18484237792055142,0.057636618537939124,-0.12697685854101068,-0.10560032445672651,-0.05251877354450361,0.0015084783810225214,0.012707638266193033,0.9943602918635517,0.0041969655410137256,-0.0019064372374672262,0.0008231001779590391
0.28217793016206366,0.13292842729740828,-0.012781699133200763,-0.05215892608982028,-0.11698554370780827,-0.04687465146649251,0.005547443597452231,-0.0003202125343910768,0.9840116399648557,0.004184183841880525,-0.0016242593073051627,0.0009560286052564473
0.2973350357309015,0.058182706275061,-0.05573365668034508,-0.050450305985590554,-0.06069305607775527,-0.06840901251018346,0.011917653376187463,0.016567242089919616,0.9933408436263813,0.0041284501852001795,-0.0013269242715742613,0.0010142113115315084
0.354778361198079,0.09776232725470792,0.029566210516074526,0.020978986752611818,-0.03188011707258441,-0.05661493398936738,0.008148361178639384,0.011291573716309162,0.9925392027187442,0.0041580163957162545,-0.0009721459103761821,0.0011119736387862162
0.30892486074572423,-0.11537884540043922,0.03106997201830554,0.03923571781994522,-0.06108450322310061,-0.009527870157191443,0.003989469484137618,0.012429577792914948,0.9968676094021371,0.00418908636773456,-0.0006632210496304578,0.000996594793385777
0.3476935217270435,-0.1769598734804233,-0.18459557484714073,0.12206927549175603,-0.03293507930935019,-0.023195910637830407,0.005939644833140103,0.01374776941695082,0.997631558926811,0.004004490792887419,-0.00031552752790341436,0.0008196349199053538
0.2865158125277441,-0.16122300201546924,-0.27314292402638907,0.14945908024622317,-0.05089391202257497,0.027265172178492572,0.016552557303048412,0.010748572952788173,0.993503215460821,0.0037313478688610307,-2.901171537567021e-05,0.0006584119178898846
0.18586769812751958,-0.1258042383010255,-0.2772448100206165,0.1654064697953317,0.03541885508988998,0.02181096905782426,-0.00047632481013238585,0.010040453239122091,0.9863167834236255,0.003454103058840414,0.00015685598275184937,0.0005326076795888591
0.2754902699147522,-0.11074782117304421,-0.3624792070712717,0.15474640797725098,0.0014833305953314297,-0.01012509855753268,0.011946620924446046,0.008927658289719795,0.983479271009801,0.003091623851769142,0.0004323462526666016,0.0004218598584158148
0.2853730124257637,-0.23344467464976024,-0.3061091316855309,0.18626661021570512,0.08724043864267066,0.05634281063041423,0.005238993340807671,0.018945950793697593,0.9855342700421557,0.002785514720083612,0.0007177192650923652,0.00018841518376605458
0.2496165320094297,-0.2876300539442534,-0.3073001219863365,0.21690928570123666,0.01683058965554499,0.05193611308245355,0.0006309423793943673,0.02235901941088204,0.9929348341518673,0.0024782145980972755,0.0009673357971017949,-9.921487017819883e-05
0.20629504562458753,-0.3081707959816513,-0.359620951226464,0.24435993183743338,0.060498776648775364,0.10299142024663217,0.013422286383136906,0.0020773554703571694,0.9936973824187272,0.0021185936468708115,0.0011736308427263825,-0.00040738566615985017
0.0028999253238189,-0.2916908483217229,-0.21206486997514334,0.24626729205093853,0.04905585244599373,0.09222967008851042,0.011543181696296104,0.01510686812705148,0.9875407941089047,0.001906528776895668,0.0011765307680502014,-0.0006990765144815731
0.0797302943520867,-0.08510370153122944,-0.28489605976527843,0.2540717991290161,0.06356631912374125,0.029701907124074507,0.009948491348086869,0.019058152362931298,0.9837728661885644,0.0016216327171303898,0.001256261062402288,-0.0007841802160128026
0.08228237606566441,-0.06422221170893083,-0.40174443037689095,0.2211838741515865,0.10257205546713866,0.11312464391959819,0.007074107777320659,0.01780905269246634,0.9903844040580073,0.001219888286753499,0.0013385434384679525,-0.0008484024277217334
-0.14524567580270636,-0.19704237645600697,-0.09663412202766067,0.20516977655201937,0.08298392916127915,0.10706227420760166,0.005419032976695937,0.01351223463810145,0.991580313434351,0.0011232541647258382,0.0011932977626652463,-0.0010454448041777402
-0.21248550992090603,-0.006667645683171332,-0.0889377853541441,0.18668274640085336,0.12509126051573852,0.0875353424142053,0.007006697195263785,0.009779956119490486,0.985349782713564,0.001034316379371694,0.0009808122527443402,-0.0010521124498609116
-0.1379988162619293,-0.027145254869957097,0.03684436099622289,0.08402819066270045,0.10718603791018284,0.12066871134165329,0.0038244376237014425,0.02091764060149264,0.9858566499601974,0.0010711607403679168,0.000842813436482411,-0.0010792577047308688
-0.27577294920435214,0.12251113358195415,-0.02942587790142653,0.145430931989699,0.0865320561600395,0.05808729926773565,0.007999714153364281,-0.00018135169678940542,0.9918534924781663,0.0010417348624664903,0.0005670404872780587,-0.0009567465711489145
-0.2872277937711858,0.12580361787404007,0.11740602635948222,0.07137213337731926,0.11824231275269269,0.024127171144423636,0.0028671040924362094,0.0147927137399994,0.9870707049602563,0.0011591408888259728,0.0002798126935068729,-0.0008309429532748745
-0.44701544859500997,0.10409010849574499,0.04856026537434174,0.025792039055504708,0.0710602452346247,0.02829314851053325,0.002187134620390923,0.013914697120512493,0.9814697255840203,0.0012077011542003145,-0.0001672027550881371,-0.0007268528447791295
-0.3671634871999541,0.2873219423135668,0.16779393875062829,0.035027797312040004,0.08186976618893935,-0.05106168174767527,0.0055217885714844836,0.022734774471766958,0.9937535495077694,0.0013754950929509427,-0.0005343662422880913,-0.00043953090246556277
-0.5165378459325238,0.22771322633520888,0.2665470663354815,0.009440644857571824,0.04172696404874482,-0.05462747474825449,0.0061673782779833545,0.012554967578562148,0.9906518608679407,0.0016420421592864241,-0.0010509040882206151,-0.00021181767613035385
-0.5833428246283525,0.32420459744420876,0.27550074738418345,0.016641759870701302,0.08900557193227336,-0.05037115259535018,-0.007166226932261814,0.020193366120260313,0.9823258196227939,0.0019175429066706077,-0.0016342469128489676,0.00011238692131385494
-0.6667327832446388,0.21170427493823354,0.3233188327759039,-0.15128669565791833,0.0592317932484514,-0.12011077500494267,0.007445689108073727,0.02282561873744625,0.9835513876313605,0.002240861739446511,-0.0023009796960936067,0.0003240911962520885
-0.706289182890124,0.2548015059097688,0.29284486062521964,-0.06704476175752692,0.027634788094955617,-0.0939999226222666,0.003324155160287868,0.014980839018090093,0.9901800671650661,0.002533706600071731,-0.003007268878983731,0.0005788927021618573
-0.48372229544940154,0.11285267428937654,0.39167049866353737,-0.10853506877984498,-0.00047306290869691785,-0.17333864890629233,0.002374405963183733,0.02172505142932827,0.979591349402036,0.0029253770987352685,-0.003490991174433132,0.0006917453764512338
-0.6090841288226622,0.14485324235170122,0.2516979797703494,-0.05401918033391772,0.02185980156222433,-0.0942655323085108,0.005227610952809371,0.015722034419133016,0.9904561109044524,0.0031770750785056184,-0.0041000753032557945,0.0008365986188029351
-0.4794618972074873,0.15047122108402614,0.2542195827867077,-0.15576537341831345,-0.039820223497184934,-0.17531151331003508,-6.598484868392202e-05,0.014258867597446023,0.9903420779407277,0.003431294661292326,-0.004579537200463282,0.0009870698398869611
-0.40197178643245585,0.014571626804149834,0.163911167150468,-0.1643350602275456,-0.03446243625438633,-0.163606385345984,0.002110825604508554,0.016734442669924812,0.99225692625318,0.0035952058284427937,-0.004981508986895738,0.001001641466691111
-0.3841657145922892,0.21482429543606724,-0.10528538781398483,-0.10241095550192664,-0.05167437584867718,-0.15006250181684722,-0.007178094880114536,0.023421824707191684,0.991418731990146,0.003489920440628809,-0.005365674701488027,0.0012164657621271785
-0.43048084429355393,0.032944352623638956,0.1102980969948715,-0.1302473945944149,-0.07289036305134813,-0.095789536072174,0.0034689573342573054,0.009645029449810757,0.9825599360142685,0.0036002185376236805,-0.00579615554578158,0.0012494101147508176
-0.4281411366989149,-0.05939918360819595,0.10155436488791618,-0.04169087913743377,-0.04413531509546041,-0.13826093615996218,-0.00700485750566892,0.022571847219678375,0.9930156988301816,0.0037017729025115966,-0.0062242966824804956,0.0011900109311426216
-0.21231039169381863,-0.1326754224595324,-0.05497763071956357,-0.11964393919244258,-0.05927774529847615,-0.07869013671497911,0.0026775098216940863,0.01837397363560101,0.9830788155059473,0.003646795271792033,-0.006436607074174314,0.001057335508683089
-0.13372733366759165,-0.16070879275407482,-0.0826023610061167,-0.0008577409686177841,-0.027479713352535844,-0.058268186155161945,0.012037856421552771,0.015234112330003496,0.975722431820765,0.0035641929107859158,-0.006570334407841905,0.0008966267159290144
-0.0052075756579471055,-0.20293031198784928,0.033345602410917524,0.016465493230451322,-0.06022771037373477,-0.015336871641294351,0.00014886729369424688,0.011050193108529392,0.9860581903226139,0.003597538513196833,-0.006575541983499853,0.0006936964039411651
-0.12062279619850567,-0.1881154217492765,-0.20715603786556386,0.07176216912732716,-0.07795874683821491,0.015435982455645264,0.00018708281242547486,0.01297280550414361,0.9833548439036692,0.003390382475331269,-0.006696164779698358,0.0005055809821918885
0.11179244225775248,-0.3096904105649158,-0.0886986740017262,0.08161378540165548,-0.0649660768340289,0.03683889696688769,-0.0005192773474392677,0.01609660287946104,0.9860790214615417,0.003301683801329543,-0.006584372337440606,0.00019589057162697272
0.25412213670250683,-0.3922515252346943,-0.035920704713621604,0.096667925296899,-0.058087406505885314,0.08808738813615706,-0.0021436717810860264,0.022091444613447888,0.9866796626166817,0.0032657630966159215,-0.006330250200738099,-0.0001963609536077216
0.19534027679335628,-0.4231195981889033,-0.08152322073922937,0.08571247453826181,-0.05723743378608499,0.06127200174751186,-0.009304088920067309,0.020814970327548858,0.9835447726781841,0.003184239875876692,-0.006134909923944743,-0.0006194805517966248
0.41135181856209735,-0.37750791647734644,-0.15521528954467498,0.15384483816344272,-0.0015888559981289303,0.12090917452042238,-0.012041414884801373,0.020473055777164982,0.9815127710206469,0.003029024586332017,-0.0057235581053826454,-0.0009969884682739713
0.37193068876452917,-0.4712588494279962,-0.06964964919560858,0.13387346439388623,-0.0632392034492754,0.13969315766088253,0.0033374695618071104,0.018857727053640926,0.9852080196925542,0.0029593749371364087,-0.005351627416618117,-0.0014682473177019676
0.4203728954861548,-0.4710238078678703,-0.14281720570280865,0.21143269075993934,0.020917649708117686,0.1974885145563759,-0.0024249953809482544,0.017739834908856594,0.9875650487845928,0.0028165577314336002,-0.004931254521131962,-0.001939271125569838
0.35308854953054153,-0.39293751193712756,-0.1183154391224925,0.14525922844914765,-0.04779493799155221,0.13207374501182315,0.011497905199099769,0.004751150603275994,0.983308892702924,0.0026982422923111076,-0.00457816597160142,-0.0023322086375069657
0.5555395599206882,-0.2872625036618084,-0.0771028623829956,0.17661861772748194,0.03182676355435768,0.18374569401527582,-0.0010232669826158074,0.02100304307571912,0.9925975548640997,0.002621139429928112,-0.004022626411680732,-0.002619471141168774
0.5344166700407699,-0.3515938493385066,0.013036613421465525,0.12211326677908295,-0.02274500248653842,0.13855476776120162,0.003192050340904946,0.01696723536816749,0.9885620933573631,0.0026341760433495776,-0.0034882097416399625,-0.0029710649905072806
0.6299508778248742,-0.193283571989459,0.0746608143812771,0.14364642987509732,0.036330419797128866,0.14207264854750146,0.002208268550905161,0.01793445544095901,0.9916051183609224,0.0027088368577308547,-0.0028582588638150883,-0.0031643485624967397
0.6162093641551898,-0.24563042887350994,0.18886520262062728,0.08943651473815661,0.042893400482741886,0.13258246281179303,0.0026320298135569338,0.017331028091608084,0.9924485419911951,0.002897702060351482,-0.002242049499659898,-0.0034099789913702495
0.5679929064999317,-0.2083613838094519,0.08883431863701817,0.04437103065304826,0.030085035730328762,0.09694394505640264,-0.0029556539527700407,0.027918744243140784,0.9838312934096539,0.0029865363789885,-0.0016740565931599662,-0.003618340375179701
0.5914142210743522,0.10458386582125627,0.1853516200406189,0.00517181251374078,0.06472210410814659,0.09247222049119262,0.004303405668305472,0.02471418630936193,0.9757603505420169,0.003171887999029119,-0.0010826423720856143,-0.003513756509358445
0.3882416656694806,0.0024447267616203514,0.08454162402934995,-0.014915374033509562,0.03807262877966969,0.03525739775620353,-0.003230745066315367,0.02680193202512827,0.9933629888853367,0.0032564296230584685,-0.0006944007064161337,-0.0035113117825968246
0.4596980069992875,0.21663212475408,0.2646183100665602,-0.04527848524909331,0.07821046384561796,0.06224634308041381,0.0015871929644563658,0.014517204413594506,0.9962661587816702,0.0035210479331250297,-0.00023470269941684615,-0.0032946796578427447
0.31366367730554584,0.2583447802026831,0.2414157283421569,-0.08912598251491288,0.04343168332015519,0.00911238328164851,0.0013618737630905573,0.028726547562075832,0.9895309682275656,0.003762463661467186,7.896097788869972e-05,-0.0030363348776400612
0.44377894695302433,0.3977425375818381,0.21030310054755616,-0.10439101343249263,0.04281069437618196,-0.05116124865551772,0.004077946285508616,0.02573717523643167,0.9853263763388279,0.003972766762014742,0.0005227399248417241,-0.0026385923400582233
0.28495268940980406,0.23784492179099592,0.16321183994816366,-0.16656782090464217,0.059677287898045245,-0.017944279129292237,-0.0021846546667433062,0.015659639986798337,0.9809662061005882,0.004135978601962906,0.0008076926142515283,-0.0024007474182672272
0.25670426857286827,0.298683577973923,-0.0007236423160640326,-0.22427150026957285,0.03374701377841181,-0.03670398199977697,0.0009974311635775192,0.023576295305409983,0.9908293565942556,0.004135254959646842,0.0010643968828243963,-0.0021020638402933045
0.30238159094478045,0.3894880606361404,0.029293183595359415,-0.18370846718772518,-0.017625567298167846,-0.07043970219641271,-0.007998502371943314,0.015331430283441461,0.9791305336521968,0.004164548143242202,0.0013667784737691768,-0.0017125757796571637
0.13060920863234038,0.27678711574943804,0.025826072412383706,-0.19376374455958412,-0.04192324025539907,-0.12620664717697155,-0.004670549439085368,0.015459972610338773,0.9842028838938585,0.0041903742156545855,0.0014973876824015174,-0.0014357886639077258
0.08666403373315926,0.40287978886470377,0.0942345259436276,-0.1466001769693002,0.017786142881846323,-0.11687247989967149,-0.0013636156357334393,0.02126244743540281,0.9785392573112219,0.004284608741598213,0.0015840517161346765,-0.0010329088750430221
-0.12422633285251605,0.5038645033531739,-0.10106098800728602,-0.21538141427495655,0.03553690120119254,-0.05508914498161594,-0.013174153312363778,0.016268942879051965,0.9869420432900551,0.004183547753590927,0.0014598253832821607,-0.0005290443716898481
-0.061629537474979755,0.4650188551842194,-0.2345185046524182,-0.1297353559100065,0.008853408684452578,-0.0735948782269347,-0.005557806990306599,0.02056091679864373,0.9973904268355843,0.003949029248938508,0.0013981958458071809,-6.402551650562866e-05
-0.2014598223361106,0.3484315006363638,-0.23554935089603365,-0.22165138339590282,-0.053867408215945,-0.13360320448220542,-0.004455457904816351,0.02318911557709092,0.9812056057645504,0.0037134798980424746,0.0011967360234710702,0.00028440598413073513
-0.3919293528399356,0.24903136901390227,-0.277459002785672,-0.10834444400239819,-0.06130806658232998,-0.04303355737781241,-0.0019879797981473724,0.024060955099859553,0.9906068389514152,0.003436020895256803,0.0008048066706311346,0.0005334373531446374
-0.31608475597453545,0.15317870477868462,-0.29290072868325284,-0.17348450107409286,-0.0715559258299079,-0.04503743715995952,0.006289838867135111,0.02773317141841236,0.9879833324913068,0.00314312016657355,0.0004887219146565992,0.0006866160579233221
-0.2488804770954857,0.19230702443416908,-0.41955167017843314,-0.0602995941793016,-0.06308012568041203,0.027197408681296734,-0.009487656131842385,0.020802366188161666,0.9818306181370511,0.002723568496395117,0.00023984143756111353,0.0008789230823574913
-0.45112874159016725,0.19705180449028237,-0.3407655211372369,-0.06704402325291628,-0.029303351863519404,-0.01908992395710523,0.0011687691152977085,0.02656317107353197,0.988232114053816,0.0023828029752578795,-0.00021128730402905375,0.0010759748868477733
-0.30145607420962073,0.09118122206706221,-0.2779178501823567,-0.0811671928066641,-0.08587307848105354,-0.0015863168661835285,0.008771331097793784,0.016813530639877203,0.9877844455079701,0.0021048851250755228,-0.0005127433782386745,0.0011671561089148358
-0.3101827489809089,0.048136137012807785,-0.29530475087140357,-0.022180327603942854,-0.13027401788704182,0.0745323469236724,-0.0017967799673893163,0.024933607684600595,0.9861363833934406,0.0018095803742041194,-0.0008229261272195834,0.0012152922459276435
-0.25964791481857397,0.03111357096582043,-0.28800433052158064,0.05260730421285317,-0.08384247591614682,0.0932900897168061,0.005574548776081458,0.027349575452173775,0.9862735896253858,0.0015215760436825387,-0.0010825740420381575,0.0012464058168934638
-0.26130677564051075,-0.13146578085713148,-0.1382868298337464,0.10509392370567361,-0.06374554808600906,0.10625510865887985,-0.004214785460792833,0.024529316853030333,0.9786629621908055,0.0013832892138487922,-0.0013438808176786683,0.0011149400360363321
-0.3366703571034839,-0.18717722993580357,-0.09864686393949577,0.11997040010165685,-0.11985026550613892,0.0772898670800013,-0.006226535974047423,0.02064398093866955,0.9844323239865124,0.0012846423499092963,-0.001680551174782152,0.0009277628061005287
-0.29775636819219914,-0.1820934970609509,-0.04372498281566853,0.14772427061940077,-0.07340722836732783,0.13217808365635508,-0.002584086510438406,0.019923196352122717,0.9831357178658322,0.0012409173670936279,-0.001978307542974351,0.0007456693090395778
-0.26667088693151697,-0.16766533346571005,0.0031724759129897724,0.11280717848369794,-0.1628225684583373,0.11383442952980301,-0.0022870396279354574,0.017532681180683046,0.9815117354057511,0.0012440898430066177,-0.002244978429905868,0.0005780039755738678
-0.13807719296995538,-0.3759200028811708,0.06926540178828593,0.21347323150935518,-0.06567133928071098,0.07313372268953088,-0.005032294145682177,0.020696567534252686,0.9731396589862026,0.0013133552447949035,-0.0023830556228758236,0.00020208397269269696
-0.14290300940830714,-0.27759999904704996,0.1868263659020866,0.2494463803370931,-0.13149504275009105,0.11186483253630142,-0.0019927967780360716,0.023764006199546932,0.9797583534861535,0.0015001816106969901,-0.002525958632284131,-7.551602635435301e-05
-0.08787064337405631,-0.2534135090989351,0.2848592391437624,0.23621424036011446,-0.07963570498815074,0.06819058289556161,-0.005772608792321163,0.02243328491016481,0.9820226236274285,0.0017850408498407526,-0.002613829275658187,-0.00032892953545328815
0.021576374233282618,-0.33666428363696677,0.19494199538905127,0.26931380935562876,-0.05357597302328064,0.015756534939282446,-0.006371260270142766,0.020822114856465315,0.9824553025944446,0.001979982845229804,-0.0025922529014249045,-0.0006655938190902548
-0.11612395232879132,-0.12876512493155023,0.31805959671364387,0.2797448558395643,0.0011642873892700077,0.04888609914270897,-0.006214298896734613,0.03086537303028227,0.9796670117109261,0.0022980424419434473,-0.002708376853753696,-0.0007943589440218051
0.10591731374287565,-0.19874876630944235,0.36076424572904076,0.1708816883471548,-0.03817122993264484,0.03803476872314684,-0.007072389881244835,0.024702907087636197,0.9810069638551904,0.002658806687672488,-0.0026024595400108205,-0.0009931077103312476
0.18549829086111622,-0.22005836467319223,0.3581823333959979,0.20199993371744518,-0.019140889797313834,0.005924003748640999,-0.006701682540830421,0.018996228213127627,0.9810521912005368,0.0030169890210684867,-0.0024169612491497044,-0.0012131660750044398
0.08853848018930353,-0.05630136978636373,0.2758580628741,0.14554384424567465,0.00879586370835474,-0.04417788287708362,0.0020736920054117763,0.02263466332687762,0.9945560155627302,0.0032928470839425866,-0.0023284227689604003,-0.0012694674447908036
0.30591799975032097,-0.035821510296206095,0.14490160798276766,0.16216704697972534,-0.0323609097250896,-0.0520498136184185,-0.002516338368752842,0.03834914841069996,0.9811464074992239,0.0034377486919253543,-0.0020225047692100794,-0.0013052889550870094
0.25143778651576554,-0.03570464408157223,0.17368202546291567,0.13756436506297262,0.06762398904369946,-0.1330551629859011,-0.009654085053881292,0.027091959367798134,0.9846301692095253,0.00361143071738827,-0.001771066982694314,-0.001340993599168582
0.2583613628221706,0.11961892355912751,0.1413924513562238,0.10988174447010925,0.07574873453659642,-0.10738734275550917,-0.0028120168759009833,0.030512526793962023,0.9835373327408915,0.003752823168744493,-0.0015127056198721432,-0.0012213746756094541
0.3746213638326117,0.021343865630272033,0.2637888571377214,0.07090703029021218,0.06436760130761222,-0.08482112848174049,-0.0036871124779717414,0.026619932194113054,0.9828916242464247,0.004016612025882215,-0.0011380842560395315,-0.0012000308099791822
0.3171483273436922,0.16010805918929194,0.12947083838552417,0.021235468523294332,0.08976494413767169,-0.11528057786518557,-0.009338864473372059,0.03307785981710973,0.9911388070158386,0.004146082864267739,-0.0008209359286958395,-0.00103992275078989
0.46502365184869887,0.21017092909192436,0.0634373315583884,0.032525628797422136,0.08781553532118588,-0.12559359873844594,-0.007198158754568536,0.02536483182990498,0.9914324292796286,0.0042095201958261275,-0.00035591227684714043,-0.0008297518216979657
0.5001057787774138,0.22878835414874885,-0.08036463722128928,-0.06167070560264483,0.11438490682910733,-0.12912902168429385,-0.004981431864222008,0.02520262178174676,0.9838324201981092,0.0041291555586048375,0.00014419350193027337,-0.0006009634675492168
0.46849853177368606,0.34958389718260086,-0.0785422384937369,-0.08629899045534618,0.08587092625108378,-0.15756884226546242,-0.0057847163456824875,0.028934323025167498,0.9843840463059488,0.004050613320111101,0.0006126920337039595,-0.000251379570366616
0.21493332792329048,0.3677725800826774,-0.08277172694954864,-0.11486934852046847,0.09930588864634679,-0.13227190314299375,-0.0031057794303450273,0.022792786405051273,0.9829833536584963,0.003967841593161552,0.00082762536162725,0.00011639300971606143
0.30729342678606175,0.38709518317032604,-0.1583471672502634,-0.1118893714085738,0.10123526727364245,-0.15544564492910132,-0.0002555624326767911,0.03225221528907112,0.9852921375731677,0.0038094944259112885,0.0011349187884133116,0.0005034881928863875
0.2860418825990989,0.17211152745310324,-0.14260726274462024,-0.13430335458828624,0.10621256241802161,-0.14331862841048715,-0.012932486362695861,0.023669205381030282,0.9817891419864619,0.0036668871631666683,0.0014209606710124105,0.0006755997203394907
0.05117277855787661,0.1473285553157514,-0.16045564747611332,-0.06029414636999164,0.024491950756519575,-0.06019727944763662,-0.0075725829540900375,0.029957071015318856,0.9821799663207046,0.0035064315156905553,0.0014721334495702873,0.0008229282756552421
-0.061823419495353804,0.09273851370152501,-0.25089761972096014,-0.047976979814280014,0.05645130011010764,-0.03178627883015295,-6.60037398447855e-05,0.029609208171667883,0.9831313815061011,0.003255533895969595,0.0014103100300749336,0.000915666789356767
0.04539405355515916,0.11222486373668436,-0.2246760101727496,-0.10150427773888718,0.08222073426977579,-0.048939530776243134,-0.007717428180794579,0.02151714694331088,0.9850517172228866,0.0030308578857968452,0.0014557040836300926,0.0010278916530934515
-0.13022958322261274,-0.024680091218614447,-0.09165582843410046,-0.14681040656588687,0.04803981362116483,0.01788603504511723,-0.004122791501697232,0.029250227312802166,0.9825047799554101,0.0029392020573627453,0.0013254745004074799,0.001003211561874837
0.01853321306736913,-0.0032126706220189,-0.11200020663217186,-0.06331614246535226,0.03847628699348522,-0.004592725270502201,-0.005147653265479795,0.028920220635624407,0.9897830943135794,0.0028272018507305733,0.001344007713474849,0.000999998891252818
-0.1819921049911953,-0.19495914966446093,-0.13570128534280632,-0.03268558834312366,0.018380018607641362,0.04257062584072834,-0.007036520834511388,0.024017115364611142,0.9855445104142272,0.0026915005653877673,0.0011620156084836536,0.0008050397415883571
-0.25572795093629624,-0.24600243628432225,0.038483775635819256,-0.008766678527437103,0.02242833993498455,0.12687600814917943,-0.0025428375479283746,0.019908331499521918,0.9822089797298418,0.0027299843410235865,0.0009062876575473577,0.0005590373053040348
-0.2960441956280131,-0.23362713743520674,0.09814686417683571,-0.03893455418754549,-0.030395025395474874,0.13905779717603078,-0.012335370129509053,0.034330349156417916,0.9983493095505104,0.002828131205200422,0.0006102434619193445,0.00032541016786882815
-0.409011818401561,-0.2719636911635247,-0.037003999931479924,0.05418602952597766,0.006717753871238855,0.04914855364115615,-0.009050867665900339,0.03993567184526425,0.9890466502675397,0.0027911272052689425,0.00020123164351778345,5.3446476705303395e-05
-0.49324704690751403,-0.45445497628054676,0.11869384247958946,0.08974950237957552,-0.048592544885709396,0.12651467644649114,-0.006608299185901429,0.02402289869399702,0.9846909326586946,0.002909821047748532,-0.0002920154033897306,-0.0004010084995752434
-0.5275753826400176,-0.352661161561588,0.15024387728065391,0.09329575233703241,-0.03804403134722503,0.19150455450569878,0.003257331579946737,0.03222357910432927,0.9851819104310114,0.003060064925029186,-0.0008195907860297482,-0.0007536696611368315
-0.5462352440616594,-0.28547409879137786,0.2061196634815381,0.16797666889593302,-0.08540207625642551,0.17962528053186527,-0.008821620973442728,0.03053905826265677,0.9858951997399682,0.003266184588510724,-0.0013658260300914076,-0.0010391437599282095
-0.5424071855715161,-0.25213175451962,0.32840849662968863,0.06676735995025358,-0.06983038586606666,0.15523587225912455,-0.007586737524701754,0.029814604632280924,0.9886891192045694,0.003594593085140412,-0.0019082332156629236,-0.0012912755144478295
-0.5658730219879815,-0.43357949620377384,0.13775352011686368,0.15006910545912022,-0.02461485280698568,0.190994720600821,-0.007033111336101459,0.025941937872814277,0.9902531488411334,0.003732346605257276,-0.0024741062376509053,-0.0017248550106516035
-0.46416933652727743,-0.4644731946233013,0.103895223031416,0.12904969401546665,-0.05741690553751359,0.0913163918115467,-0.001983841797304863,0.025138536445565372,0.9802555069055133,0.0038362418282886918,-0.0029382755741781826,-0.0021893282052749046
-0.5256054998141259,-0.39261467860429977,0.2309025679116238,0.14746715123160697,-0.07043657788312846,0.11657093130588016,-0.0008963671226247683,0.028838059486445765,0.9725678200105377,0.0040671443962003164,-0.003463881073992308,-0.0025819428838792045
-0.5979645919559877,-0.31355339615384287,0.17974536835983232,0.16325933392726782,-0.009583212203646854,0.1387468629237726,-0.009670643642842307,0.021621766955196138,0.9784803412035834,0.004246889764560148,-0.004061845665948296,-0.002895496280033047
-0.514179239981676,-0.28195220086274797,-0.05801533959503241,0.12028915070505058,-0.07223935505324434,0.05654948750153467,-0.008693764630204775,0.025229667242468282,0.9802244470081245,0.0041888744249651165,-0.004576024905929971,-0.0031774484808957957
-0.5622150248143724,-0.15747229800620177,0.0880222298755094,0.131966238098872,-0.04595054033834056,0.023315431764554972,-0.002805557006327817,0.026333516163014076,0.9833177840650275,0.004276896654840625,-0.005138239930744344,-0.0033349207789019975
-0.5125991712755973,-0.24167427382690299,-0.1507705967440843,0.10520703536437478,-0.02114660236677655,-0.011461952931147686,-0.0063437181967480275,0.031889045555067566,0.9838959249907374,0.004126126058096541,-0.005650839102019941,-0.0035765950527289004
-0.25481521078296865,-0.1653599132227722,-0.04422392635263095,0.06860507882101982,-0.06750061074851696,0.009537890486917524,-0.005415546234351408,0.021409308660361823,0.9839144107582792,0.004081902131743911,-0.005905654312802909,-0.0037419549659516724
-0.3865820181364112,-0.06304484747472948,0.009395042821996907,0.03845509175306555,-0.054952509372555865,-0.019605288538730593,-0.013384145222073183,0.03072268736422224,0.9893909435500347,0.0040912971745659076,-0.006292236330939321,-0.003804999813426402
-0.2223307053656595,-0.1226896371811113,-0.2114213292245811,0.035321738108345324,-0.008043677666092403,-0.02549325824044093,-0.0022351624101348954,0.026534507002395492,0.9787561039716869,0.003879875845341327,-0.0065145670363049805,-0.003927689450607514
-0.12390962395407339,0.055291996380653345,-0.2661821650955176,-0.03204004554604163,0.006211447529076784,-0.08125528054434626,2.110703233585559e-05,0.03835181172464117,0.9884396194708021,0.0036136936802458088,-0.006638476660259053,-0.0038723974542268593
-0.10221596928533735,0.13949619092820792,-0.20519221982243613,-0.1056148500372069,0.03379997675987482,-0.07736755618314566,-0.011316165944938845,0.03643018607336029,0.9818290994744513,0.0034085014604233726,-0.006740692629544392,-0.0037329012632986523
-0.002031279345340753,0.21147143374082766,-0.21510498432007877,-0.09954813767238209,0.007893981588238865,-0.08166968904830142,-0.010762679996625854,0.03612197994050039,0.9856267810284882,0.0031933964761032933,-0.006742723908889731,-0.0035214298295578243
0.12935728274424904,0.3235059018659163,-0.29266339047402223,-0.12397258568808747,-0.00714952830540431,-0.11850609781676992,-0.012191530232531568,0.027014880751830565,0.9863923571718406,0.002900733085629272,-0.0066133666261454825,-0.0031979239276919078
0.20193634396171598,0.426546211339613,-0.2400720123018613,-0.13179784044731205,0.007398904844273995,-0.10174809007777766,-0.01574006697352888,0.03211499700035283,0.9805742521129702,0.00266066107332741,-0.006411430282183767,-0.002771377716352295
0.3094174313314683,0.5230747854690578,-0.32596143601701083,-0.1507598284123957,0.056860741986750354,-0.04957378280092054,-0.01135266955694151,0.02880814449430412,0.9834247753710087,0.0023346996373103993,-0.006102012850852299,-0.002248302930883237
0.2854203443629112,0.3609837598214275,-0.2145736701623463,-0.18628354989991186,0.09813815559889541,-0.08758045129199694,-0.010648085201259712,0.02930529697620881,0.9778636186142398,0.002120125967148053,-0.0058165925064893875,-0.0018873191710618094
0.3821822867842408,0.45150130796924876,-0.2244254265193111,-0.19154831861088348,0.0659650362679436,-0.025050878630080972,-0.002919388630803539,0.02830443739571053,0.9759003303465665,0.001895700540628742,-0.005434410219705147,-0.0014358178630925608
0.49597794183442423,0.4200779725347987,-0.2520486194142554,-0.15646524657266328,0.07071030572963523,-0.03703376016701694,-0.016446880476769416,0.0361047098771007,0.9794073880062568,0.001643651921214487,-0.0049384322778707225,-0.001015739890557762
0.3319591768611264,0.4267966781923874,-0.06400860379976993,-0.20094616292366163,0.048387132441961016,-0.019012750585419888,-0.012777421972907288,0.02451669587774693,0.9749468426251319,0.0015796433174147168,-0.0046064731010095955,-0.0005889432123653746
0.6310999309171884,0.3740891084984038,-0.06853502621772073,-0.17601578344816232,0.025215198835895902,0.012105042319702698,-0.006998440618010892,0.026308217056213494,0.9794091645841136,0.001511108291196996,-0.003975373170092407,-0.0002148541038669707
0.7278904509960384,0.3206355768156869,0.022564592917159516,-0.1559245345508365,0.04463521076859572,0.05800130816471407,-0.01245036712391498,0.029261550657022746,0.9852388642257529,0.0015336728841141558,-0.0032474827190963687,0.00010578147294871621
0.6746655552772342,0.2800938183081508,0.10335978726525602,-0.17326325566683687,0.040263393362179815,0.07005561770309025,-0.01185105161027782,0.03244661440855765,0.9777092853511217,0.0016370326713794116,-0.002572817163819135,0.00038587529125686703
0.5397621251752096,0.20055957035712366,0.15461566450288716,-0.13645830224472277,0.01386596496061724,0.05712848059250098,-0.010397473713813069,0.039851856334327154,0.9827564452968559,0.001791648335882299,-0.0020330550386439255,0.0005864348616139906
0.5470622749615525,0.20980209590243426,0.2471820054183965,-0.04991890295377701,0.029471606528049362,0.06359741850389623,-0.011276388886454831,0.03386490953518774,0.979731080564246,0.0020388303413006953,-0.001485992763682373,0.0007962369575164248
0.5041052462248566,0.14539566138403592,0.3009546791505468,-0.0218391413040297,0.03846344290968491,0.06612525401229384,-0.009474228699965998,0.036459357762158494,0.9815727086668565,0.002339785020451242,-0.0009818875174575164,0.0009416326189004608
0.47357666972445744,-0.07032695862495354,0.26144089086397226,0.02281110015525635,-0.0021945398460674987,0.12089410192981224,-0.006700615617006846,0.030680661164965033,0.9885818096768344,0.0026012259113152147,-0.0005083108477330588,0.0008713056602755072
0.45153891574877675,-0.09384671309621524,0.37264832362959077,0.016036199760382144,0.01560641155817907,0.10143082505834998,-0.006452841916121438,0.04077754321102333,0.9904816304468501,0.0029738742349448054,-5.677193198428205e-05,0.000777458947179292
0.3787144987153091,-0.08079829870714894,0.36397972547892987,0.03640685002117899,-0.05587495906560445,0.09637839969577097,-0.011025956076014245,0.026909853879061522,0.9743547673916755,0.0033378539604237353,0.0003219425667310271,0.0006966606484721432
0.2521161701269872,-0.19517844700542003,0.2953614906923342,0.15209725353679104,-0.0691841073193218,0.06232658903644157,-0.0066921720162203165,0.029248354284517098,0.9825371666743958,0.00363321545111607,0.0005740587368580143,0.0005014822014667231
0.24244797068773705,-0.236622835753848,0.2586695374762365,0.10667035420337521,-0.011937496438868343,0.10944039978043098,-0.017211001279962113,0.03441989005746785,0.9716920116156053,0.0038918849885923065,0.0008165067075457514,0.00026485936571287507
0.27522607675493127,-0.14761948892365517,0.3092773951086526,0.18220757956769634,-0.036547727544967594,0.052201211604404225,-0.014460380155277765,0.02909953938258815,0.9859785267718489,0.004201162383700959,0.0010917327843006825,0.00011723987678921988
0.26650324194630837,-0.23304188523459804,0.1630265455209917,0.20104930088593453,-0.03420167317815863,0.01014543128700274,-0.006661300644367928,0.03835567134951114,0.9812196303009901,0.00436418892922195,0.0013582360262469912,-0.00011580200844537817
-0.016615877130070844,-0.21340224429868554,0.12792597017883642,0.25669670075839535,-0.15082223699646635,0.007272164662265429,-0.007979107662988318,0.02925561103417345,0.9815721901042818,0.004492114899400786,0.0013416201491169202,-0.0003292042527440638
0.009760127511312305,-0.33088470105590145,0.1664254334187316,0.24550972482192396,-0.10231693873791341,-0.0239006411893897,-0.014056342769560052,0.0324088536367099,0.9657447815485141,0.004658540332819517,0.0013513802766282326,-0.0006600889537999653
-0.12360904213146337,-0.16220479647719796,0.08035134126653576,0.22393332447337855,-0.09169606928737738,-0.06358931557920984,-0.015889044636242144,0.03166925051635606,0.9791378182189977,0.004738891674086054,0.0012277712344967693,-0.0008222937502771633
-0.2020333517053084,-0.29175787213230225,-0.06721044561002285,0.2626391757960408,-0.13263623651537415,-0.09309758964074855,-0.004276341283923505,0.03777428688258492,0.9889544905284561,0.00467168122847603,0.001025737882791461,-0.0011140516224094653
-0.21316900944408665,-0.339590823329873,-0.030011532520798148,0.24223894692175466,-0.15246588817973092,-0.0879842308941517,0.0003159103879414541,0.03556663934300042,0.9824527409181956,0.004641669695955233,0.0008125688733473743,-0.0014536424457393384
-0.2317317021398328,-0.1586427425267119,-0.054713464504944076,0.23065759277905126,-0.05162298233732912,-0.14305470501169912,-0.007947125947684232,0.025147852759131263,0.9805176033567964,0.004586956231450288,0.0005808371712075416,-0.0016122851882660505
-0.1808663559675865,-0.12091400829355137,-0.01637247443904985,0.20981965090531043,-0.1242085322317402,-0.12170001793125702,-0.002542483040474299,0.03612025835939659,0.9863799928132898,0.004570583757011239,0.0003999708152399551,-0.0017331991965596019
-0.4175467230982002,-0.13252219884619545,-0.11870726087477446,0.1631741306742018,-0.09276075302032735,-0.11440233823201525,-0.02059290453336589,0.03170112079319043,0.9823642311665232,0.004451876496136464,-1.7575907858245144e-05,-0.0018657213954057972
-0.3439880825616278,0.006978372075788074,-0.16865952403651702,0.11430822473782708,-0.124387931420116,-0.14933733829093304,-0.011661488160863551,0.033158903584857416,0.9730526386443029,0.004283216972099947,-0.0003615639904198729,-0.001858743023330009
-0.43208117687958036,0.014031493891116423,-0.23549851305333797,0.10016541906505935,-0.08816495578606495,-0.1680391013202952,-0.019542262181435413,0.0346364526608738,0.9753765720709276,0.0040477184590466085,-0.0007936451672994534,-0.0018447115294388926
-0.32066577988430567,0.17895024437934937,-0.09713129650053269,0.0992157192515616,-0.13023769782412634,-0.11249733999965847,-0.0071361869529177075,0.033602632947415015,0.9916847764621451,0.003950587162546076,-0.0011143109471837592,-0.0016657612850595434
-0.29763327505023685,0.11239379528915264,-0.29630504636731037,0.12694325426810021,0.009719757926320977,-0.12071280172685615,-0.007929015381905767,0.0307670195707268,0.9831503823739596,0.003654282116178766,-0.001411944222233996,-0.0015533674897703909
-0.3118476999834362,0.186498666229046,-0.0491761876899281,-0.0021464965307064314,0.004183111756129216,-0.1328193204214993,-0.008819653288762745,0.03336752484146732,0.9784548593391529,0.0036051059284888374,-0.0017237919222174323,-0.0013668688235413447
-0.30486765913280733,0.11378247294619974,-0.07220668675224115,-0.09992802270220687,0.03650460153096337,0.0001595816889637166,-0.018085301647647586,0.029319079481238294,0.9758365288531813,0.003532899241736596,-0.002028659581350239,-0.001253086350595145
-0.23093882074149863,0.31325104314255026,0.011396946484679676,-0.09449569254197471,0.03943765374654667,-0.07086702422644618,-0.010221762431188771,0.028957318750211156,0.9816314308822357,0.003544296188221276,-0.002259598402091738,-0.0009398353074525946
-0.20183627520975667,0.3158516724001926,-0.0377128455148526,-0.07753382338368046,0.05943069737900227,-0.043507867477925906,-0.012951785485822234,0.03545182969355089,0.978121539842561,0.003506583342706423,-0.0024614346773014946,-0.000623983635052402
-0.18543158721088956,0.24559501710022325,0.08430627541374239,-0.08086232672223305,0.050318786320194694,-0.04215944215497539,-0.018328385338778775,0.03090660190339258,0.9896266614391113,0.0035908896181201656,-0.002646866264512384,-0.0003783886179521787
-0.19586723092457456,0.18159667235228757,0.028757204420271743,-0.08949720922140456,0.01595419161216615,0.07020016943832802,-0.015670640246131993,0.042692917292417185,0.9791620670525261,0.0036196468225404375,-0.002842733495436959,-0.00019679194559989112
-0.1002219548329642,0.16803675370299337,0.04821158913848203,-0.12324979705550129,0.14809671737547608,0.011102701295968622,-0.015843519698899668,0.025368586865508514,0.9885402111650355,0.0036678584116789192,-0.0029429554502699226,-2.8755191896897764e-05
-0.010899026337204881,0.17976459277730628,0.14665384294003755,0.003058284680560996,0.06484567170708182,0.07843868204169221,-0.01813967730488261,0.028368981148123584,0.9793378959511737,0.003814512254618957,-0.0029538544766071276,0.00015100940088040853
0.08855794790289312,0.096919211522565,0.243100223748096,-0.10976776622522813,0.04012369820387059,0.13806981369282392,-0.02162005063118659,0.031094450403171943,0.9769660938885216,0.004057612478367052,-0.0028652965287042347,0.0002479286124029735
0.20237386199139487,0.08855716193400984,0.20969916031689737,-0.1181288725302867,0.12987138977472776,0.14994082843045564,-0.0051025072172897045,0.04061545689499817,0.9716089403730944,0.00426731163868395,-0.0026629226667128397,0.00033648577433698334
0.17263242345246194,0.04814290048129839,0.2851628652260649,-0.10597279315642177,0.15081565580208944,0.1854623821349195,-0.010612840063097527,0.031447160907680426,0.9873936579448775,0.004552474503910014,-0.002490290243260378,0.00038462867481828174
0.33900312476144856,0.018491790923446494,0.1274264225402525,-0.03153431959083184,0.08936901150684042,0.15153358971209385,-0.007913591891236135,0.03712907153200635,0.9788372307069085,0.004679900926450267,-0.002151287118498929,0.00040312046574172825
0.2137974495308588,-0.1546621224211423,0.21815913595996375,-0.041008773731583424,0.0936757328635149,0.1876164634181649,-0.010175010571101454,0.040388544824830334,0.9833788614494327,0.004898060062410232,-0.00193748966896807,0.0002484583433205859
0.4040407636026508,-0.24042495271413433,0.08259787963069748,0.016532442309074177,0.1281138869210363,0.15373476269688935,-0.011733157001651886,0.03485498882418557,0.9824168267150949,0.004980657942040929,-0.0015334489053654193,8.033390606451585e-06
0.30344447162978583,-0.2484257942066445,0.03089219409954621,0.02003337341805223,0.06495663870657861,0.12009915126767595,-0.02253259486541396,0.036583862206203584,0.9781375094606777,0.005011550136140475,-0.0012300044337356334,-0.00024039240360019295
0.33269600623987794,-0.2945288414896509,0.0705628148243714,0.03662333878798748,0.034465608371122364,0.13387883916776955,-0.01652884482895565,0.044511283802181424,0.9880814882412783,0.0050821129509648465,-0.0008973084274957555,-0.0005349212450898439
0.309553976098765,-0.4557003362806148,-0.07205524160046768,0.012275218518871681,0.09108288786617558,0.12437642430119544,-0.014530983118484008,0.038866856313052006,0.9778738342251616,0.005010057709364379,-0.0005877544513969903,-0.0009906215813704586
0.35666696647639495,-0.46157386693693153,-0.1671941948209918,0.09543472284078167,0.04779748685598476,0.09924200149556225,-0.025925915807557376,0.035070791360163694,0.9688779831416122,0.004842863514543387,-0.0002310874849205954,-0.0014521954483073902
0.28650279335247564,-0.3893042670648504,-0.15157736652516954,0.118764705178032,0.07587783629579288,0.11447889534403045,-0.006127225653166445,0.04398565105329682,0.97454396555485,0.004691286148018218,5.541530843188025e-05,-0.0018414997153722405
0.20245400608519265,-0.520911785320205,-0.30478891274280717,0.181159304818384,0.036697177732323095,0.07298553865917957,-0.016225453351441276,0.04026683335285941,0.9922763353553398,0.00438649723527541,0.0002578693145170729,-0.002362411500692446
0.18819626481965895,-0.38775392152996596,-0.1983096143355223,0.17056111102378863,-0.006938924035597541,0.02815573295777203,-0.01268802942730672,0.036343740728029574,0.9771445611258847,0.004188187620939888,0.0004460655793367319,-0.002750165422222412
0.32074617188251936,-0.30461819864915585,-0.22918386590985995,0.17882684080490827,-0.01113112767747851,-0.03216138676942502,-0.014951468517351007,0.026077011993173423,0.9823296082820567,0.003959003755030028,0.0007668117512192512,-0.003054783620871568
0.2184127328455875,-0.3948107551847489,-0.3188863099308708,0.1702497560125171,-0.043539684609604286,-0.055205460784805545,-0.01148081017301474,0.03751909424688445,0.9823922740807096,0.003640117445099157,0.0009852244840648388,-0.003449594376056317
0.17866335960911317,-0.38217305524297884,-0.30657279120054115,0.10134147820266287,-0.058051789736152846,-0.025177821751812192,-0.01943160009236649,0.03213343975023315,0.9713607714704728,0.003333544653898616,0.001163887843673952,-0.0038317674312992956
0.043113892534120006,-0.22198307372494352,-0.2825714942755388,0.11920718310378775,-0.025729732441567676,-0.045896417058570796,-0.006367922254080752,0.036860197726747375,0.9773319166048994,0.0030509731596230776,0.001207001736208072,-0.0040537505050242395
0.09894144706007563,-0.2574855093660998,-0.17231003349273,0.10214676162028677,-0.038134970983544896,-0.05501396030305301,-0.012255944919584379,0.03856169724315004,0.9825312384562955,0.0028786631261303475,0.0013059431832681476,-0.004311236014390338
-0.10045216032795767,-0.15536511137806258,-0.2575800272154022,0.10647055366484667,-0.03795000213594965,-0.060102250648268775,-0.006843178026074544,0.03517755808184313,0.9833183436696239,0.0026210830989149454,0.0012054910229401896,-0.004466601125768402
-0.1209454590836949,-0.13605000476222656,-0.1046083697019799,0.03359535034577699,-0.09035502854278614,-0.10714188928918617,-0.01632233802337653,0.025284474043019804,0.972674669363781,0.0025164747292129655,0.0010845455638564948,-0.004602651130530628
-0.18467552116584895,0.15196166877713393,-0.2587855623150903,0.017647522264549277,-0.050981117808498386,-0.03970984008146936,-0.014310581645583683,0.0294337103629708,0.9778229778579361,0.0022576891668978755,0.0008998700426906458,-0.004450689461753494
-0.13389430201029998,-0.01773726361993703,-0.05693487825996846,-0.04727693088064915,-0.060574312038274465,-0.042207742020193215,-0.015712678398035244,0.04172238460993297,0.9717551153344866,0.002200754288637907,0.0007659757406803458,-0.004468426725373431
-0.4006830457638096,0.13340589206613643,0.0243088068621427,-0.06739882989845693,-0.10811680466883282,-0.05640401019426992,-0.021166334495980342,0.022345906788403164,0.9716707040379988,0.0022250630955000495,0.00036529269491653623,-0.004335020833307295
-0.3330572368438079,0.12881705559791584,0.06552727370760586,-0.06511546376621133,-0.03127369746746101,0.041800105532324335,-0.00857882614471988,0.03761058836063787,0.9683710578515023,0.0022905903692076557,3.223545807272832e-05,-0.004206203777709378
-0.3891674399840511,0.2902780417248017,0.2419841625114206,-0.13669502253381377,-0.0501610049352681,0.0013517188016882765,-0.016816632750316116,0.03409614642233647,0.9836464347360218,0.0025325745317190764,-0.00035693198191132287,-0.003915925735984577
-0.3703605327399888,0.38045317831709363,0.2514532736931457,-0.11463981685660216,-0.006378793871587043,0.0014094958685680684,-0.012696459209689316,0.03637613677346081,0.977419153145554,0.002784027805412222,-0.0007272925146513116,-0.003535472557667483
-0.43113293579029804,0.3180342908409428,0.1681378562997629,-0.22299145814194293,-0.04905274237994376,0.03982767085803276,-0.008273401111176259,0.0388812471080416,0.9716820227063252,0.002952165661711985,-0.0011584254504416096,-0.0032174382668265404
-0.6216179260041685,0.329869335750578,0.1978661066303714,-0.20127671454016488,-0.043452133495349106,0.05494151137066892,-0.015505050549047238,0.0380338100154818,0.9856961052375606,0.003150031768342356,-0.0017800433764457784,-0.002887568931075962
-0.46254107627085844,0.35164603779094916,0.31585686913030914,-0.19006845585426235,-0.035805664872550796,0.10130267114951844,-0.020746748896121374,0.04034377416590592,0.9719423989336742,0.0034658886374726652,-0.002242584452716637,-0.002535922893285013
-0.6348823004960022,0.449063042001527,0.37909776188443683,-0.15531716712269117,-0.003407601290727995,0.050370585640280706,-0.013667974834244579,0.04341724768251423,0.9717087299319667,0.003844986399357102,-0.002877466753212639,-0.002086859851283486
-0.6514863047355591,0.4708125479204405,0.29291444982790676,-0.20874397002004888,0.04002642019064456,0.09904733962520733,-0.011771277437196078,0.03949069119283612,0.9705730931936102,0.004137900849185009,-0.0035289530579481984,-0.0016160473033630454
-0.5304572434225088,0.4320843318507028,0.35433418731843647,-0.18787199377386812,0.07025409681862471,0.05869808589756779,-0.014765165813874987,0.027613862687185634,0.9770793646898828,0.004492235036503445,-0.004059410301370707,-0.0011839629715123426
-0.6423039128128523,0.38822145982357625,0.2733928692434469,-0.18344577746008497,0.005697544038049722,0.09739459096178676,-0.016541187660311114,0.03438090573203684,0.9804052370145232,0.004765627905746892,-0.004701714214183559,-0.0007957415116887664
-0.45667389397547026,0.34630479217808285,0.16541254899719324,-0.1313964297889491,0.002099602875156155,0.0828659141050432,-0.017114386969373983,0.046897170930626154,0.9710869095596448,0.0049310404547440855,-0.005158388108159029,-0.00044943671951068345
-0.4822107262543324,0.32641011436566303,0.03942297014156207,-0.15727997043404676,0.07062938731780474,0.1405245656832615,-0.026519027915093432,0.0342076893511128,0.975183694131922,0.004970463424885648,-0.0056405988344133615,-0.0001230266051450204
-0.3178420596588911,0.23444585824605116,0.12074691890674144,-0.0854781607405664,0.07138442075718207,0.07835205969731227,-0.01241323022704266,0.044914683057414535,0.9758624948675231,0.005091210343792389,-0.005958440894072253,0.00011141925310103077
-0.3095450049417309,0.12281147179388596,-0.004671075330653168,-0.0678859832331064,0.04470396758089855,0.10257014044735545,-0.010734329073098693,0.03663768995854428,0.9719725712952594,0.0050865392684617365,-0.006267985899013982,0.00023423072489491676
-0.3162807009847537,0.08224050993842409,-0.06726785603577362,-0.07087761331099904,0.05514550820133708,0.02377704538998412,-0.005607985308060351,0.033103894675356675,0.9787960510580515,0.005019271412425962,-0.0065842665999987365,0.00031647123483334084
-0.10006994203199972,0.004000368609980726,-0.058910532086201006,0.04152336975755798,0.08730358006789272,0.0013585952416036735,-0.013924033945093513,0.04060406776064909,0.9657788753374791,0.004960360880339761,-0.006684336542030736,0.00032047160344332153
-0.020495752901847103,-0.10509768596470653,-0.07997293975889158,0.05188832868466727,0.06339492416749373,-0.06897136556386445,-0.020241337416726953,0.04610306318389018,0.9706616811070478,0.004880387940580869,-0.0067048322949325835,0.000215373917478615
-0.014955391910156872,-0.14388598815787776,-0.14294205756655662,0.11563205407809965,0.028539845321596653,0.01592814470014571,-0.021910682815979774,0.042887223019928325,0.9714651918040044,0.0047374458830143126,-0.00671978768684274,7.148792932073725e-05
0.10258960375575826,-0.2559741385613088,-0.2716909916210746,0.1157427478148947,0.023389569543415954,-0.06854566768580553,-0.014282764450451192,0.037380339057632404,0.973030340845446,0.0044657548913932385,-0.006617198083086983,-0.00018448620924057157
0.14815307034945432,-0.2215794096753082,-0.24727740728287634,0.16297385612259613,0.0066900484696868455,-0.0416684942568204,-0.0017568801219873757,0.03410490014843214,0.9837713398969672,0.004218477484110362,-0.006469045012737528,-0.00040606561891587986
0.21905984824491842,-0.24912633756237493,-0.23851538679366316,0.1801207300400971,0.016928609088050366,-0.09954334852378156,-0.010027265531723548,0.04033749665921741,0.9789195819433553,0.003979962097316699,-0.00624998516449261,-0.0006551919564782547
0.46111347839481925,-0.24107443624379582,-0.07101770975025293,0.21038720969407712,-0.04844099086916069,-0.10530089007408402,-0.011061767692901063,0.03619533017135118,0.9710994099848942,0.003908944387566445,-0.005788871686097791,-0.0008962663927220505
0.42712663685590424,-0.3582540918688124,-0.11875888197392466,0.23265830293824857,-0.02413073607084288,-0.0974736444024762,-0.02509102984175686,0.034308940989193466,0.9720172713165478,0.0037901855055925207,-0.005361745049241886,-0.001254520484590863
0.6168715927213156,-0.3465624862663806,-0.050090796137616196,0.23974409892635443,-0.019240150359213865,-0.18951096139862567,-0.019208312632783938,0.040466141404359265,0.9775473082776857,0.003740094709454904,-0.0047448734565205715,-0.0016010829708572435
0.48556610815101264,-0.18662787854046684,-0.016278921635244734,0.2214136868634072,-0.03568274993787682,-0.15652446597495714,-0.015368632657623674,0.04006228637511721,0.9731058978421754,0.0037238157878196594,-0.004259307348369558,-0.0017877108493977102
0.5597509702339557,-0.14915422017614738,0.016747209510477375,0.23579689086606265,-0.05084855072623769,-0.0958606040519111,-0.02008341473936199,0.03930753379463249,0.9688636174609914,0.0037405629973301367,-0.0036995563781356024,-0.0019368650695738576
0.5304769137227608,-0.25364438325792976,0.06461733492219508,0.22915369069537406,-0.04570892388654145,-0.14260351230707635,-0.022301633278191117,0.02995879811546958,0.9807220779294481,0.0038051803322523316,-0.0031690794644128415,-0.0021905094528317875
0.5262464952248169,-0.15666607450070508,0.1130342881804697,0.1950021233829674,-0.0475078877901427,-0.1299571821931247,-0.013555407719079383,0.04109119047200045,0.97455688873628,0.003918214620432801,-0.0026428329691880244,-0.0023471755273324923
0.6445053819171351,-0.16804007050955722,0.050602428594649695,0.2030320841122041,-0.15967119042393116,-0.10148491664474496,-0.02355960793728923,0.0394669872047256,0.9731446183951381,0.003968817049027451,-0.0019983275872708893,-0.0025152155978420496
0.6091948238621002,0.04284008141522255,0.230729967121082,0.1399432710499635,-0.1373332138621062,-0.033764796288627504,-0.021738401398196154,0.03807202558945557,0.9677601685370121,0.0041995470161485336,-0.0013891327634087893,-0.0024723755164268273
0.4900159091759134,0.05441764314657012,0.3691482635592789,0.19078051227947565,-0.10876332053771647,-0.060848105330636774,-0.013017392535597886,0.03213244113920608,0.977782612002069,0.004568695279707813,-0.0008991168542328758,-0.0024179578732802572
0.5222335265107759,0.08003297506747611,0.11077735329886945,0.07239946406537791,-0.07766424891811317,-0.0006654741275044628,-0.016370836457637893,0.03461940611052227,0.975653637949699,0.004679472633006682,-0.0003768833277220998,-0.002337924898212781
0.33615799885752534,0.0875368477551269,0.18423830487345663,0.10214586514314664,-0.10664542904970208,0.025909957118215997,-0.01703488893531525,0.040093011414010844,0.9814982373801633,0.004863710937880139,-4.072532886457442e-05,-0.002250388050457654
0.35789282123523075,0.24620920086192694,0.1151460264287699,-0.035402724450537465,-0.15852762258373787,0.031375278489881024,-0.018680760680150402,0.03440065047027152,0.9759822740396978,0.004978856964308909,0.0003171674923706563,-0.002004178849595727
0.3696866296126365,0.24307133299118688,0.29003841103676364,0.004860544165008156,-0.09799930430805932,0.09931835034668587,-0.013996546193665246,0.03573030494429757,0.9816077665264252,0.005268895375345673,0.0006868541219832929,-0.0017611075166045398
0.3483103458419531,0.33266951812634915,0.134779193337161,-0.07025096955782499,-0.09213716710100552,0.07467183541507848,-0.014126587726478925,0.03923890706873914,0.9690346715016953,0.005403674568682834,0.001035164467825246,-0.0014284379984781906
0.3054020911042086,0.31681452241430197,-0.11834375723079613,-0.0019736051259390316,-0.08401929724432905,0.1371384823902623,-0.013261819739536133,0.03776187893190378,0.9717150063992138,0.005285330811452039,0.0013405665589294547,-0.0011116234760638886
0.0548076371043931,0.2448331148434641,0.032497840036206774,-0.14426607507553688,-0.06416878484766148,0.1013137702654867,-0.018498706690472367,0.04364029179574589,0.9771849565516814,0.0053178286514882454,0.0013953741960338478,-0.0008667903612204243
0.0687344796386049,0.14743840127705798,-0.09758105758520683,-0.1455496254651235,-0.08507599240382492,0.10793200466897519,-0.009140344749713276,0.04309726556142204,0.9751270875397552,0.005220247593903039,0.0014641086756724527,-0.0007193519599433665
0.03033351265157292,0.2384539946094796,-0.06068998428820697,-0.10883080915353745,-0.05134118295726081,0.17792446859777947,-0.019892452870347677,0.04095653188731444,0.9688606018102995,0.005159557609614831,0.0014944421883240256,-0.0004808979653338869
-0.10452088624950087,0.23030593055341095,-0.12281259890651484,-0.1565645082536146,3.969375565072205e-05,0.1658090204439681,-0.0210074705873186,0.036342708717751276,0.9727881367877674,0.005036745010708316,0.0013899213020745248,-0.00025059203478047586
-0.15360754054287423,0.14729649111473817,-0.18887300927887793,-0.1254584380596652,-0.03012377819857457,0.1691759433860017,-0.010676485386331834,0.032890443491791294,0.973121922742291,0.004847872001429438,0.0012363137615316504,-0.0001032955436657377
-0.2821008824378723,0.07300802637213546,-0.23100711194024856,-0.10558872730012323,0.006798232018099179,0.08376379994150664,-0.008282130831803384,0.03999914008120418,0.97471770945864,0.00461686488948919,0.0009542128790937781,-3.0287517293602244e-05
-0.28898991105984034,0.06854636312886124,-0.1779616406206878,-0.0742997753312365,0.044836284706579604,0.12431673462096164,-0.027187309480987062,0.04329904052567452,0.9719303568935425,0.004438903248868502,0.0006652229680339378,3.8258845835259e-05
-0.3289164065194782,0.01711486596827,-0.30093916552826194,-0.12099296371444518,0.04528702690637828,0.11105215961027257,-0.015744156863976927,0.042370346308149946,0.9654942563160456,0.00413796408334024,0.00033630656151445947,5.5373711803529e-05
-0.32222970344812435,-0.14893194190913323,-0.29259572657446387,-0.06956266772476197,0.03691525958080666,0.061396346580243163,-0.016725530502210578,0.03815259764705165,0.968380440704357,0.003845368356765776,1.407685806633513e-05,-9.355823010560424e-05
-0.3837427525784387,-0.1913600745872721,-0.2743443315402386,-0.024432130257614475,0.07378278704534992,0.029153624955139096,-0.01818110339451049,0.04494629634287934,0.9659960752022144,0.0035710240252255377,-0.00036966589451210364,-0.00028491830469287634
-0.3234126720564666,-0.2769197569313656,-0.36721071373853503,0.03987836398261252,0.05588771102690925,0.057757295679067615,-0.015556705648750328,0.03974279979970092,0.9781835643868372,0.0032038133114870022,-0.0006930785665685701,-0.000561838061624242
-0.43636562621531094,-0.3321191523152829,-0.31073640762344845,0.07954900979151008,0.09819247267266298,0.014113999502523872,-0.01977217409920909,0.039479898393874405,0.9662772414148539,0.0028930769038635535,-0.0011294441927838812,-0.0008939572139395249
