motionRotationRateX(rad/s),motionRotationRateY(rad/s),motionRotationRateZ(rad/s),motionUserAccelerationX(G),motionUserAccelerationY(G),motionUserAccelerationZ(G),motionGravityX(G),motionGravityY(G),motionGravityZ(G),motionYaw(rad),motionRoll(rad),motionPitch(rad)
0.2284558853464188,-0.2072556867816376,-0.20592519720871166,-0.09962530816215039,-0.11242687474048879,0.010138463785694048,-0.020944538508464804,-0.04207372048257018,0.9757536641277221,-0.00020592519720871169,0.0002284558853464188,-0.00020725568678163763
0.2932907169695319,-0.12557500208369804,-0.06708936448771778,-0.07460746589769586,-0.026786967707360186,0.003342770046107309,-0.02030139529022678,-0.03534767961066193,0.9719948863426767,-0.00027301456169642947,0.0005217466023159507,-0.00033283068886533565
0.3846474377038997,-0.035852940450458295,-0.06938034434961057,-0.10477312773824632,-0.04892452432993921,-0.06092859478573457,-0.02251196927996677,-0.03645627774831884,0.9693102233561263,-0.00034239490604604005,0.0009063940400198504,-0.00036868362931579394
0.5633853992797386,-0.010275622979035918,-0.05278325200386087,-0.07468349644261485,-0.0036152663246172253,-0.040068925376497255,-0.020934467630609552,-0.033013745734997754,0.9706903373030176,-0.0003951781580499009,0.0014697794392995892,-0.00037895925229482983
0.4836713798800353,0.07590464750303494,0.16929901556398602,-0.0293096112898491,-0.08208687081138533,-0.012319759067934625,-0.022587429929651057,-0.043689404887413415,0.9734475224863143,-0.00022587914248591492,0.001953450819179624,-0.00030305460479179485
0.5219896681714972,0.1305604934802224,-0.02074994454420917,0.033201897894241994,-0.03734284652160691,-0.09271282819898248,-0.017213917954862785,-0.04301895990582554,0.9773506175825741,-0.0002466290870301241,0.002475440487351122,-0.0001724941113115725
0.5484473992003859,0.0642647285712521,0.15840603311066215,-0.015114827073135396,-0.020923506249265957,-0.105284460605631,-0.024141866017422065,-0.030053310425387815,0.9687843494542208,-8.822305391946193e-05,0.003023887886551508,-0.00010822938274032038
0.5726422584010282,0.26291643121896474,0.21995087269581998,0.04125121887903758,0.017417608970273314,-0.0673513800449253,-0.016042996157249582,-0.04004634131406949,0.9737732884805734,0.00013172781877635807,0.003596530144952536,0.0001546870484786444
0.5182947462069664,0.19725723551737345,0.18844167390709693,0.07237967671339153,0.04830887622878583,-0.05006291500726672,-0.022447539465292272,-0.038513015779894494,0.9683816544491849,0.000320169492683455,0.0041148248911595025,0.00035194428399601787
0.5024385183059733,0.08104482720847153,0.13891103395001148,0.060132237805696556,0.10123848499134153,-0.033885207816079975,-0.008058372672588715,-0.03365625952399802,0.9715304077454192,0.00045908052663346644,0.004617263409465475,0.00043298911120448935
0.561759850193815,0.21505727938323851,0.15303118132504862,0.148604796874071,-0.010881290601171184,-0.08981494047456227,-0.02605908071683386,-0.04122888917562667,0.9753739000927952,0.000612111707958515,0.005179023259659291,0.0006480463905877278
0.4543913789019874,0.27758809303477183,0.11314936403270771,0.07641214241361155,0.06751415763196027,-0.07976184396540235,-0.007545837230478589,-0.04198627430164887,0.976109160146698,0.0007252610719912227,0.005633414638561278,0.0009256344836224997
0.3906266760339769,0.35838063694778727,0.3010420128263246,0.17488662300235291,0.0030555906916055406,-0.052407395850893775,-0.015133606491565393,-0.02799392975187649,0.9604702410828354,0.0010263030848175472,0.006024041314595254,0.0012840151205702872
0.36324454734652994,0.31483066920281905,0.13093490500492946,0.14074155423241336,0.08648148308600968,0.02433968197210557,-0.009213567035153955,-0.03267482601161294,0.9727885119650352,0.0011572379898224768,0.006387285861941785,0.001598845789773106
0.3407202430126074,0.06451518042239415,0.04461666298434753,0.1502679984840188,0.027896439141630706,0.04193689830669219,-0.013028577403579308,-0.028088614215756806,0.9755732212742405,0.0012018546528068245,0.0067280061049543914,0.0016633609701955003
0.31252274560268345,0.06765791729603707,0.0005434579640826165,0.1556256535979061,0.08464111713491838,0.01752001889413779,-0.012212001973302251,-0.03321608998937813,0.9684773140902432,0.0012023981107709071,0.007040528850557075,0.0017310188874915375
0.14801102851286968,0.1086279893807055,0.1606302531125878,0.08337139055930434,0.07191725417999234,0.05004132588317431,-0.014363346751060846,-0.039795196977720895,0.9711745308541624,0.001363028363883495,0.007188539879069944,0.001839646876872243
0.12175635371332696,0.0409801518172977,-0.0769433113484116,0.0931605815855539,0.05096796611356014,0.057528218879714585,-0.026415159221641157,-0.03862437694784221,0.9746853481019273,0.0012860850525350832,0.007310296232783272,0.0018806270286895407
-0.031666526855481575,-0.03560833734996962,-0.1800034973123138,0.08496577736415747,0.032337123247548394,0.14204076781895936,-0.015353615785050331,-0.03979875083429591,0.9703518168179034,0.0011060815552227693,0.00727862970592779,0.001845018691339571
-0.12013473236041106,-0.0863797512065673,-0.21397424390091196,-0.012627293010073322,0.02429297568144457,0.11369198509955344,-0.008297511855454031,-0.03994169468232401,0.9660508789196947,0.0008921073113218572,0.00715849497356738,0.0017586389401330036
-0.12766106230744362,-0.2927100649719496,-0.11608931731024578,0.014653400605064091,0.020218979568616614,0.07646992066717402,-0.02449752958652511,-0.03067372015757669,0.9723324581321984,0.0007760179940116115,0.007030833911259936,0.001465928875161054
-0.15927622907951738,-0.2541685162120955,-0.2331007570972981,-0.0035997203999780045,0.017465959920408496,0.11801293673135778,-0.01752646467374599,-0.03558109913372525,0.97277214790371,0.0005429172369143134,0.006871557682180418,0.0012117603589489585
-0.14925656721431246,-0.3061797114360025,-0.3175758556222065,-0.08740076812903509,0.011421203872496559,0.12097776514667638,-0.012314150123484933,-0.03471563109313526,0.9712657989611058,0.00022534138129210683,0.006722301114966106,0.000905580647512956
-0.1747758666456588,-0.4218848114612304,-0.31166556334445217,-0.08609205876563462,-0.03669344111257858,0.04724336083307976,-0.013745665310893777,-0.03288727054761047,0.9687212421156698,-8.632418205234534e-05,0.006547525248320448,0.0004836958360517256
-0.2909281221658456,-0.3992014027274476,-0.20752241643288571,-0.15033762780916474,-0.013658648935381587,0.01705006386732546,-0.015108503456137172,-0.03681486316407799,0.9676504316813476,-0.00029384659848523105,0.006256597126154602,8.449443332427798e-05
-0.3240654152996458,-0.4202455988432779,-0.31765874878075373,-0.19258353343258455,-0.023737053128742566,0.03751369206191805,-0.011854961141100268,-0.031730755612011725,0.9675249142836024,-0.0006115053472659849,0.005932531710854956,-0.00033575116551899995
-0.32189431625122766,-0.43749492890607283,-0.28911689822161474,-0.20888131772138752,-0.0384733644038674,-0.029325008599226828,-0.010051663040426005,-0.042260114405021865,0.9606798331018559,-0.0009006222454875997,0.00561063739460373,-0.0007732460944250728
-0.3755609325949024,-0.30606042889219415,-0.27799940989291666,-0.18820371270804973,-0.03189439326574814,-0.02965725618587787,-0.01471542833871112,-0.03967806164598947,0.9712571373270983,-0.0011786216553805163,0.005235076462008826,-0.001079306523317267
-0.3652828349255557,-0.40204568477501906,-0.29271448533354144,-0.24707556466324396,-0.06549688667529364,-0.05487391257571194,-0.01297866106720231,-0.03764265930775353,0.968363019636749,-0.0014713361407140578,0.004869793627083271,-0.0014813522080922863
-0.27776376033420735,-0.41894808326043975,-0.010349179524466595,-0.2559168141213516,-0.08593088218037118,-0.0722337686763254,-0.0158310915664744,-0.03207934420204058,0.9750443084168817,-0.0014816853202385244,0.004592029866749063,-0.001900300291352726
-0.24765195016193214,-0.42716642754651535,0.05141822533886588,-0.22096895270596692,-0.10599782718439942,-0.08025575037786069,-0.015823253020046266,-0.021876470670794592,0.9723211079406073,-0.0014302670948996583,0.004344377916587131,-0.0023274667188992416
-0.26136678847224776,-0.2248506586620673,0.0018877283646659263,-0.15789870284144036,-0.063336084005103,-0.09193611434787859,-0.020537960843938805,-0.04312365608466076,0.9702656154591989,-0.0014283793665349925,0.0040830111281148825,-0.0025523173775613087
-0.14117740155177416,-0.23058236191583953,0.1064943273981853,-0.16986735513657777,-0.08790499028783359,-0.09069572204184195,-0.009446007375392512,-0.036007703921731554,0.9664794285850294,-0.0013218850391368072,0.003941833726563109,-0.002782899739477148
-0.1651824937032314,-0.21849710466078565,0.09728752090401344,-0.13759685570805594,-0.13447805352522135,-0.1484021254476139,-0.016117701131062007,-0.03604357907581492,0.9689622310121269,-0.0012245975182327937,0.003776651232859877,-0.0030013968441379335
-0.15224699437688646,-0.19718271540101712,0.27557281094165476,-0.10493206200270261,-0.12963425891337615,-0.16391166932000797,-0.014717803985657215,-0.029936796511415998,0.9714120163530228,-0.000949024707291139,0.00362440423848299,-0.0031985795595389508
-0.057090865912515755,0.038951308716696706,0.2460756318347757,-0.09257314800123581,-0.14788490487571793,-0.14257526738108078,-0.012080870957570097,-0.030782785143346564,0.9725661866072063,-0.0007029490754563633,0.0035673133725704752,-0.0031596282508222547
0.11087317103505634,0.09601526609760175,0.4601779612629681,-0.07377532344840394,-0.12791987167932137,-0.17916514822100793,-0.018311557549026608,-0.025462208957047643,0.971212827155289,-0.0002427711141933951,0.0036781865436055316,-0.003063612984724653
0.03388881853036277,0.08593494070503496,0.450592945466069,-0.047721055749369815,-0.05468441155777526,-0.0891492600002387,-0.0120988785627451,-0.03566028876659771,0.9642783100749648,0.0002078218312726739,0.0037120753621358946,-0.0029776780440196175
0.09126204068693565,0.16522225642278338,0.18031103382956293,-0.051158295991831595,-0.09058729237721551,-0.09871167677609229,-0.010367830736997128,-0.03146358874665654,0.9745232365588518,0.0003881328651022368,0.0038033374028228297,-0.002812455787596834
0.13143881767995058,0.2859793231440933,0.1921362009741824,0.024521016598413107,-0.09310072288808768,-0.07533666438638971,-0.01224436584124054,-0.032700923500525995,0.960078176864317,0.0005802690660764193,0.00393477622050278,-0.0025264764644527407
0.19197142753784235,0.4127497877805009,0.36281199180098567,0.03224864923229657,-0.06510696514054588,-0.10147872646597783,-0.011766010014156716,-0.0364761785374317,0.9687826861556812,0.0009430810578774049,0.004126747648040623,-0.0021137266766722393
0.2379280995330887,0.40448066206898486,0.1820785460172166,0.14448087260885797,-0.07560736378037711,-0.06309618919248437,-0.0212296209736597,-0.029493725956288817,0.963298339663882,0.0011251596038946215,0.004364675747573712,-0.0017092460146032546
0.3031942595347679,0.3535752818783409,0.14176060814426594,0.11956931903709078,0.036234066702350506,-0.02310211915164684,-0.015470289442681362,-0.04045690410415677,0.9684629716022329,0.0012669202120388875,0.00466787000710848,-0.0013556707327249135
0.3450717351505492,0.531950287878793,0.21886102540332952,0.19751624770905862,0.05969170319883706,0.08360844682994996,-0.007554951428270995,-0.03355430198668012,0.9723148335771753,0.001485781237442217,0.005012941742259029,-0.0008237204448461206
0.3399303607825008,0.4549685671784911,0.07116145057766338,0.2141112849010434,0.08169012223158163,0.07379390418906692,-0.0062817273715266965,-0.022034280224948324,0.9673207901539554,0.0015569426880198802,0.00535287210304153,-0.00036875187766762955
0.43945023988079013,0.38519088220557296,0.022804557037311886,0.2139979414162228,0.02062645278540834,0.10834344247092925,-0.0037166382059135635,-0.03798129054551714,0.9717338859460031,0.001579747245057192,0.00579232234292232,1.6439004537943446e-05
0.2761782975895556,0.3952281963543315,0.07601071047356125,0.2544887564186059,0.05259372947192561,0.09267715019273737,-0.015110077448949401,-0.028523590762541465,0.9693928655691488,0.0016557579555307534,0.006068500640511875,0.000411667200892275
0.3797503269441023,0.3923403478589952,-0.057723674003789596,0.2215609849322498,0.13067424280056317,0.1579087947920363,-0.02167183129577698,-0.016860471560994378,0.9663817865486439,0.001598034281526964,0.006448250967455978,0.0008040075487512701
0.36425062408763237,0.41407069602471314,-0.09024590879200747,0.2538162745459998,0.06671992960847664,0.14072375351622451,-0.01670991914784406,-0.04114218999642137,0.9734651757073657,0.001507788372734956,0.00681250159154361,0.0012180782447759834
0.3973301387950927,0.26635329461762197,-0.16816389338359394,0.2459062438924278,0.08264112795456115,0.1541807531349841,-0.020792444202510654,-0.03541765520035109,0.9672747183782474,0.0013396244793513624,0.0072098317303387035,0.0014844315393936053
0.33305494805627134,0.11889469691200596,-0.19114284755903835,0.12314859529988657,0.07384713852245851,0.1719770905400541,-0.017365990392874786,-0.028400068455530322,0.9695115005095633,0.0011484816317923238,0.007542886678394974,0.0016033262363056113
0.2614332607513923,0.10837817401968625,-0.16647174022297437,0.12173566749166866,0.0724741728170858,0.19419356466303841,-0.014469276284671265,-0.0357758005259302,0.9728538981781364,0.0009820098915693494,0.007804319939146366,0.0017117044103252975
0.05636041014352522,0.22344587443742972,-0.2192808625986184,0.05898505337253694,0.09986255792214682,0.16678294073754574,-0.021974042038578723,-0.029381693354832955,0.9667873855654672,0.0007627290289707312,0.007860680349289892,0.0019351502847627271
0.12336041430826042,0.14830097986648028,-0.27676483489299997,0.13564473335781185,0.05095851597306704,0.1938324369781227,-0.016500475696069106,-0.0282297681727244,0.9757728113870019,0.0004859641940777312,0.007984040763598153,0.0020834512646292075
-0.07580374347455907,-0.004222656013247464,-0.12661314089834969,0.08230661465111859,0.08652968419400578,0.17207889738342982,-0.015102189913365708,-0.038387477578292015,0.9674339852887431,0.0003593510531793815,0.007908237020123594,0.00207922860861596
-0.15570559689495844,-0.25366317396392407,-0.18467498333027316,0.05207279993410244,0.12111696147390906,0.13465064366957896,-0.011038708341215784,-0.033611943818764534,0.9777178617815375,0.00017467606984910834,0.0077525314232286344,0.0018255654346520358
-0.13726702093186147,-0.019254213190739944,-0.1050058858609186,-0.0029708792773594055,0.09665318963744839,0.08098473161903662,-0.008450149931792675,-0.02768015149565067,0.9783426406401341,6.967018398818973e-05,0.007615264402296773,0.001806311221461296
-0.30539633098332775,-0.25749596977119266,-0.03462257310137381,-0.008222242565760391,0.1193348681186846,0.09357090601611727,-0.012989432029344154,-0.038996149604848346,0.9719948781586548,3.5047610886815924e-05,0.007309868071313445,0.0015488152516901033
-0.3704396220142977,-0.17582342858967673,0.0531734123076385,-0.10014185216228402,0.1371361349861354,-0.004316617780815027,-0.01362041208173016,-0.02102163483810462,0.9659180824984508,8.822102319445444e-05,0.006939428449299148,0.0013729918231004266
-0.3484560172190707,-0.2515508809355223,-0.04876258559124893,-0.11623123100677561,0.0800331772258298,-0.0555331029153382,-0.01769915236310717,-0.02678325629054568,0.9733029832636012,3.945843760320551e-05,0.006590972432080078,0.0011214409421649045
-0.4135006754320565,-0.21529569764221906,0.1626624520773378,-0.10171629889070279,0.03634609904640326,-0.007611149485067999,-0.021595227075623676,-0.038661708523252916,0.9616608562294021,0.0002021208896805433,0.0061774717566480215,0.0009061452445226852
-0.474612629254673,-0.22967547683409126,0.07752937546763672,-0.1140461885403568,0.033489870099783825,-0.008862070641815533,-0.01379456632932205,-0.028978844217944732,0.9670454380314149,0.00027965026514818004,0.005702859127393349,0.000676469767688594
-0.5966621760769808,-0.22988055563013346,0.33464360149449335,-0.12063877331988423,0.0315918907142319,-0.09320007220964292,-0.022152722406835246,-0.02399904841166326,0.9642327293360451,0.0006142938666426734,0.005106196951316368,0.0004465892120584605
-0.546445384871059,-0.22835437460317493,0.2674934127725803,-0.13352324412537792,-0.044346414488294884,-0.10225317070925004,-0.004700695107880845,-0.03239812974798435,0.9630545147113891,0.0008817872794152537,0.004559751566445309,0.00021823483745528555
-0.4723344369629247,-0.251719117078808,0.3285295865332186,-0.0934808970137676,-0.022810202703238722,-0.05955377282830495,-0.013896057186936948,-0.028803910812839482,0.9614988788131671,0.0012103168659484721,0.004087417129482384,-3.3484279623522464e-05
-0.5796635582760351,-0.19605384948374802,0.2301162079474032,-0.1505087229455214,-0.040260116873529976,-0.07556576887799009,-0.014318899381032674,-0.03169351404337647,0.9663541532271881,0.0014404330738958756,0.0035077535712063493,-0.0002295381291072705
-0.49051047791376456,-0.08166846358818164,0.13587808019376385,-0.13822671367344327,-0.030326586996831252,-0.07482442564328169,-0.010710415160886,-0.029000828345522863,0.9628755370985125,0.0015763111540896394,0.0030172430932925848,-0.0003112065926954522
-0.4120217882614635,-0.060438599430152985,0.14555864362390453,-0.05872084656088959,-0.041890618876739796,-0.055336373817023436,-0.008032478968907875,-0.02741047159102767,0.966935873041215,0.0017218697977135437,0.0026052213050311215,-0.0003716451921256052
-0.46466063336567703,0.02574884967758513,0.11579665772559991,-0.08442260365488105,-0.03730868572236112,-0.02166439304985132,-0.009713357277759502,-0.023552521598139434,0.9655486682355076,0.0018376664554391438,0.002140560671665444,-0.0003458963424480201
-0.45184760021706344,0.14789349511867564,-0.026586102479337,-0.02402983685342193,-0.0346376319555844,-0.0572772191671083,-0.01674521166957924,-0.01735803909642189,0.9721608070025604,0.0018110803529598068,0.0016887130714483807,-0.0001980028473293444
-0.4316309230734185,0.1826334206793492,-0.06176169578046331,0.0019064333703721487,-0.06483872684972398,-0.031084583448658692,-0.008945486745983822,-0.02788211852784679,0.9740198880192652,0.0017493186571793436,0.0012570821483749621,-1.536942664999519e-05
-0.4265820646568277,0.20835132256071556,-0.08639790264630545,0.06830830408803727,-0.1007414704389931,0.004153208649966823,-0.0152455509671231,-0.04117827858756954,0.9718556763280852,0.0016629207545330383,0.0008305000837181342,0.0001929818959107204
-0.30922099985496054,0.24208579942829436,-0.12432745778123047,0.13227626297414177,-0.07880191399485356,0.00039378438302681805,-0.020600709422004433,-0.024995047585225562,0.97519899295322,0.0015385932967518076,0.0005212790838631737,0.0004350676953390148
-0.29110220030401446,0.2628936102865198,-0.12065764847552074,0.11920954277619324,-0.023525574363075636,0.002892771310015795,-0.012418778373358572,-0.0262390593808176,0.9640589679101271,0.001417935648276287,0.00023017688355915923,0.0006979613056255345
-0.08890734075839071,0.3386087232768341,-0.25567199919473615,0.10644412679879968,-0.07697811247646576,0.06902475714592124,-0.009408459021492059,-0.026162916923888623,0.9706974661100867,0.0011622636490815506,0.00014126954280076852,0.0010365700289023687
-0.09592286165463576,0.2822383214235984,-0.22228530925058482,0.09704020600399872,-0.0736145457425119,0.015023736802479965,-0.015581525121298307,-0.020508143036955268,0.9680999991835205,0.0009399783398309658,4.534668114613275e-05,0.0013188083503259673
-0.02209017520927631,0.20534259045998327,-0.34268518393693626,0.11123661921921098,-0.005184202946201836,0.07813086143473928,-0.010693912618068199,-0.02667505780606633,0.9641654811681811,0.0005972931558940295,2.3256505936856435e-05,0.0015241509407859504
0.058875791080140856,0.41523931593866725,-0.2826804926067212,0.14069288946817565,-0.019395370556296813,0.08697443357063302,-0.01647559588037472,-0.018314819096484303,0.9613428192305364,0.0003146126632873084,8.213229701699729e-05,0.0019393902567246175
0.1229794692326817,0.17964740983925692,-0.24361568620352472,0.1689232322043962,-0.0018270341266899276,0.09569316179096385,-0.008860708945538583,-0.030526961767085282,0.9665257993089171,7.099697708378364e-05,0.000205111766249679,0.0021190376665638742
0.099369062844566,0.05596851205160565,-0.34141549711099956,0.135020956908702,-0.004803654583537645,0.051834550553239066,-0.01480538273344628,-0.02796135814522996,0.9642691380057545,-0.0002704185200272159,0.00030448082909424496,0.0021750061786154798
0.36657253501216985,0.11722678726144924,-0.26587624219284434,0.12673644524001543,-0.058619093195801705,0.08119515139742588,-0.00060416775235928,-0.03131947806119964,0.9666884451324299,-0.0005362947622200603,0.0006710533641064148,0.0022922329658769296
0.20044325134612287,-0.021750868644740254,-0.17716951382658197,0.13894477722672088,0.03520644114621392,0.07813685116902876,-0.010554172251909341,-0.02832019074488875,0.9645306510510308,-0.0007134642760466422,0.0008714966154525377,0.0022704820972321896
0.3962544199302011,-0.09382374657057785,-0.25393324831722175,0.1418059885677303,-0.01216228013685363,0.07114822887333914,-0.013506449018813534,-0.02793538815103158,0.9630960030276616,-0.000967397524363864,0.001267751035382739,0.002176658350661612
0.4473912738871602,-0.05974757813608351,-0.12383667464193324,0.08295418826824578,-0.024551133238591764,0.04635815495565181,-0.01410491142576422,-0.030709082437917992,0.9675028978186396,-0.0010912341990057973,0.001715142309269899,0.002116910772525528
0.5049997102447885,-0.11471439742954748,-0.04972433444858787,0.048506185984913,0.08313980063552483,0.029917349851933575,-0.009157702633613499,-0.03458695760053761,0.9598319089930386,-0.0011409585334543851,0.0022201420195146876,0.0020021963750959807
0.3834688616901772,-0.2707006511713278,-0.007663576366041095,0.006367413397273364,0.07426658092412011,-0.023185335617310378,-0.018652287318651036,-0.03183302171392213,0.9716954500695816,-0.0011486221098204262,0.0026036108812048653,0.0017314957239246529
0.6203072861813071,-0.28691070218041087,0.10212930211483806,-0.031000261927353116,0.020303579503756636,-0.05156644093758791,-0.011782209141105974,-0.021632260234211734,0.9599042702475501,-0.001046492807705588,0.0032239181673861723,0.001444585021744242
0.5944269715943666,-0.24025284658195842,0.06036057402866629,-0.13364866871255968,0.06003049443038134,-0.08061421472614248,-0.012851507911330926,-0.024344514340562774,0.9675776877372987,-0.0009861322336769216,0.0038183451389805383,0.0012043321751622838
0.5875449612657725,-0.4869931179503736,0.21611555590709575,-0.10604441162312879,0.041706083816636444,-0.07246512443527663,0.000547526036712917,-0.02862237167069208,0.9682969998994939,-0.0007700166777698259,0.004405890100246311,0.00071733905721191
0.5086137752116043,-0.3957377682459903,0.2998314562988864,-0.14974292413506543,0.055255652917280317,-0.05882260652847223,-0.006530415009635054,-0.024778515306483114,0.9672952948020886,-0.0004701852214709395,0.004914503875457916,0.0003216012889659197
0.5812658933190925,-0.46894509686846086,0.29641983676980016,-0.17543670060104627,0.05320983457378979,-0.18140888878400668,-0.015859975490291375,-0.025418398339115664,0.9700909692514215,-0.0001737653847011393,0.005495769768777008,-0.0001473438079025412
0.3731616095287211,-0.4184520617759964,0.34361163156785757,-0.15566639550383715,0.046051021680077395,-0.09163285649084683,-0.008188888906902756,-0.014797586689336596,0.9691180096690482,0.0001698462468667183,0.0058689313783057305,-0.0005657958696785377
0.526413733503771,-0.46027961294418424,0.3220337184714387,-0.15067932321485042,0.045094058646363386,-0.0922444757282297,-0.014078828880447553,-0.01446843073559962,0.9718442312507523,0.000491879965338157,0.006395345111809502,-0.001026075482622722
0.511228083766365,-0.4964181995418095,0.27319393820131255,-0.23990261878309435,0.043214993911017255,-0.2042816339159959,-0.0008424434784352723,-0.023242397164391953,0.9716516131766291,0.0007650739035394696,0.006906573195575866,-0.0015224936821645314
0.4337117665385637,-0.335185304839755,0.28468356749256,-0.24350097721355718,0.03532645414415099,-0.10403170978691126,-0.013660987316943375,-0.026469899206317506,0.9685524908616523,0.0010497574710320297,0.007340284962114431,-0.0018576789870042864
0.25385643057928714,-0.19128263682928953,0.2855639100258227,-0.22375853763738746,0.03505270236669381,-0.11571507083478351,-0.011609861374250218,-0.01880095601866844,0.9661338190510907,0.0013353213810578524,0.0075941413926937165,-0.0020489616238335766
0.2812043949820455,-0.232099658263206,0.2797757289693116,-0.19643246166402978,0.04968877556167912,-0.104633585237685,-0.011678049182187206,-0.02347772651876421,0.9652687482349523,0.0016150971100271638,0.007875345787675762,-0.002281061282096782
0.18249594020424081,-0.21559014163649387,0.08324350955063607,-0.1595027982722391,-0.04785787451173267,-0.08087615892362848,-0.00022633252010770266,-0.024355102167901797,0.9703737497274116,0.0016983406195777999,0.008057841727880004,-0.0024966514237332762
-0.15020844160496516,-0.0854073709445278,0.10042664199800072,-0.16472114064528093,-0.022717396950896706,-0.1202708671527191,-0.009843121006998034,-0.02607614964575306,0.9642815419068482,0.0017987672615758007,0.007907633286275039,-0.0025820587946778044
-0.0383661177663573,-0.06577305133517679,0.1777596961651749,-0.14848864638253534,-0.07888789048060756,-0.05399806332234835,-0.005870429523982789,-0.022466386328673402,0.9678267248555084,0.0019765269577409757,0.007869267168508682,-0.002647831846012981
0.00950969870005662,0.13285134386878245,0.03171553883311478,-0.10360908731225994,-0.06982894435436843,-0.05479931307918474,-0.0036731610036314383,-0.02484783417259544,0.964149536779355,0.002008242496574091,0.007878776867208738,-0.002514980502144198
-0.19040356181209744,0.10661927129550455,-0.049537376216187465,-0.007275001236867614,-0.07303344700672966,0.017761126070065622,-0.006956098230315754,-0.02081143643294944,0.9644942789208167,0.001958705120357903,0.00768837330539664,-0.002408361230848694
-0.22580691331183733,0.29781764351358414,-0.17326699211707866,-0.010932610675293235,-0.0822253213655685,-0.044888145870330964,-0.007669331438735925,-0.020726014173510478,0.9740786192437391,0.0017854381282408243,0.007462566392084803,-0.00211054358733511
-0.24062870057915253,0.3048399485267777,-0.11494973859557181,0.038820120601405744,-0.13610975072569792,0.08573693678258316,-0.004581586560343062,-0.026050258448205313,0.9698554434856201,0.0016704883896452524,0.007221937691505649,-0.0018057036388083323
-0.20722647470002648,0.3418440969062299,-0.17451499578688517,0.06131778648593862,-0.09930669216808581,0.1130380426593849,-0.012441750128027701,-0.027792414180109557,0.970458231089187,0.0014959733938583672,0.007014711216805624,-0.0014638595419021023
-0.20818421712059113,0.3783667827008873,-0.22669564921593577,0.15502222870835874,-0.1597063606780113,0.13218552875896408,-0.004851386224003336,-0.028385060221396426,0.9717595151617694,0.0012692777446424316,0.006806526999685033,-0.0010854927592012147
-0.3815725642325142,0.42599761785394274,-0.16007422262982746,0.16333241767826648,-0.1532740032952954,0.08477732786450769,-0.009056595364417127,-0.017700298159529625,0.9654238793179631,0.001109203522012604,0.006424954435452518,-0.000659495141347272
-0.34155462629684974,0.3426284449716993,-0.16091082162120804,0.18486491882033745,-0.13351530584692725,0.14958592335043383,-0.002882294005003605,-0.021890484005300314,0.9644966388455144,0.000948292700391396,0.006083399809155669,-0.00031686669637557267
-0.32438594283064615,0.44147290071970535,-0.1395398424486755,0.2240509829748577,-0.08854539630580532,0.13593375167457164,-0.006099699441445475,-0.026142455897911275,0.9666582720041864,0.0008087528579427205,0.0057590138663250225,0.0001246062043441327
-0.3829071855723691,0.5562057568532697,-0.2231750652047261,0.21934580120857106,-0.08706147841688558,0.15763279479710957,-0.014776488714480576,-0.03147374623396226,0.9583716048622225,0.0005855777927379943,0.005376106680752654,0.0006808119611974024
-0.27789388510202684,0.38849701721743,-0.10460256906086018,0.19594407339804365,-0.09042802950791189,0.11107650631235581,-0.004482127185584878,-0.022807543508284452,0.9699313026684282,0.00048097522367713413,0.0050982127956506265,0.0010693089784148324
-0.19526711376510103,0.38497326751145644,0.02560161154896437,0.22508803222057405,-0.02415375473904853,0.15540999731521665,-0.008013921656562034,-0.020756371709207574,0.9596554698467104,0.0005065768352260985,0.004902945681885526,0.0014542822459262888
-0.23569008137901973,0.40729351936466407,-0.03401205804857457,0.2537424592205654,-0.004424873901378919,0.07545076201165461,-0.012636156295721476,-0.010923971645368256,0.9688386244433251,0.0004725647771775239,0.004667255600506506,0.0018615757652909529
-0.29748789156018424,0.20563463409242777,-0.06857081640272601,0.24901222240545706,-0.06340466522444914,0.15403723934516111,0.0005297549135831227,-0.01957687215407372,0.9703783364840556,0.0004039939607747979,0.004369767708946322,0.002067210399383381
-0.20764384330437227,0.17911471934171605,0.12862416385330488,0.3004069148057392,-0.0043682299549722865,0.08594843630010698,-0.0032045937057153715,-0.023500902760892693,0.9729175878418364,0.0005326181246281028,0.00416212386564195,0.002246325118725097
-0.07300955050106651,0.2900849748110417,0.0701811412543605,0.19695996528567178,-0.013008066872440553,0.07531465728961993,-0.011612950702559962,-0.02575553443907509,0.960992356985517,0.0006027992658824633,0.004089114315140883,0.002536410093536139
-0.03861758813923213,0.1033339054862919,0.19561274517272015,0.11471334993373333,0.054161197626171,0.06360000024263528,-0.0004924356199435004,-0.027674936961279893,0.9650187881926335,0.0007984120110551834,0.0040504967270016505,0.0026397439990224307
-0.014737487190085802,0.16242528638136314,0.31662037397861986,0.14768816761528028,0.006142645263880079,0.019419002434812694,-0.01116612011853274,-0.025867955586834204,0.9646710844855922,0.0011150323850338034,0.0040357592398115654,0.0028021692854037945
0.010010115986826919,0.04101262041534687,0.18658374327103225,0.09341698403769058,-5.310219498948481e-05,0.02660909994579764,0.001482761935673393,-0.02772640584747335,0.9656963677461228,0.0013016161283048357,0.004045769355798392,0.0028431819058191412
0.1395724739198237,-0.10602420711280315,0.21505283432260966,-0.022479453901423876,0.05260305035562095,-0.02409725347326217,-0.010093623838296015,-0.012850094011434495,0.9648262691014658,0.0015166689626274453,0.0041853418297182155,0.002737157698706338
0.10058322663268489,-0.055985173003082034,0.15253231592290392,-0.02786139743479533,0.0977431013011877,-0.0022206808476382834,-0.006644799045410618,-0.016926678291591862,0.9598528218105362,0.0016692012785503492,0.0042859250563509,0.002681172525703256
0.27866669057533927,-0.2030148239692646,0.15766666561027737,-0.04719398043833299,0.045148906098044714,-0.07521644383593201,-0.007055320222314981,-0.02117272564255971,0.9600919869212237,0.0018268679441606267,0.004564591746926239,0.002478157701733992
0.26200356657559504,-0.29620504566074557,0.09204232979507457,-0.010669216953878527,0.11357098001933255,-0.1055640237309333,-0.012678427741027207,-0.0255230529726058,0.9711666768805381,0.0019189102739557012,0.004826595313501835,0.0021819526560732465
0.30335781207382556,-0.13695513898899225,0.030202192724463634,-0.050091102015679664,0.10520731808832991,-0.07044611377583518,-0.011161599069402279,-0.019541866601751046,0.9683970399605641,0.0019491124666801648,0.005129953125575661,0.002044997517084254
0.430068058155378,-0.37862241669890817,0.07115630500346883,-0.0935622767278737,0.08729981841173999,-0.05764318593299129,-0.003271310116652549,-0.023320563495839292,0.9624023971830339,0.0020202687716836336,0.005560021183731037,0.0016663751003853458
0.3555723444748122,-0.29099457338868323,-0.08402730096879309,-0.10543971475296851,0.10354653382233112,-0.10257487181102179,-0.004692742282104492,-0.012355301894231653,0.9706994759232299,0.0019362414707148404,0.00591559352820585,0.0013753805269966627
0.46930872866257733,-0.34098021300665077,-0.024937747406677466,-0.09027363683698376,0.12333561011541645,-0.09660597543163413,0.0002280762985722145,-0.021367400899012092,0.9596737211008205,0.001911303723308163,0.006384902256868426,0.0010344003139900117
0.3014566032208046,-0.22945833201989888,-0.18622614768922516,-0.09773811324167357,0.06337902146306137,-0.112328247314473,-0.0034237455734641414,-0.023704878730759008,0.9646746255222344,0.0017250775756189381,0.0066863588600892315,0.0008049419819701129
0.2645925489073039,-0.17376174371067435,-0.2437221619693954,-0.1463667879530429,0.03105503598656285,-0.009648374208451776,-0.008302206306873387,-0.022713867387709488,0.9737297486404369,0.0014813554136495427,0.006950951408996535,0.0006311802382594386
0.23848977744445263,-0.10694087376673472,-0.296938429191791,-0.08974715261438755,0.043113822706501104,-0.002791584022199898,0.002872014615880403,-0.012670889098879045,0.960580627083041,0.0011844169844577518,0.007189441186440987,0.0005242393644927039
0.32470820082233415,0.02575443836507424,-0.3662874072021357,-0.05460745513281332,0.003229255612945587,-0.031348346392697665,0.0009000941513630017,-0.01568934881862437,0.9725079342259377,0.000818129577255616,0.0075141493872633225,0.0005499938028577782
0.26962512993351573,0.0010925669021639717,-0.34674694858813226,-0.05308272142894283,0.11997736084959869,0.0006621073945742625,-0.008262061376753055,-0.02046075111524596,0.957247167250731,0.00047138262866748375,0.007783774517196838,0.0005510863697599423
0.2252283448667786,-0.0013995495482210427,-0.29449775343373674,-0.08535169757634731,0.04948926676165816,0.047600612772333475,0.001511118317369168,-0.023356042886390357,0.9682159040351646,0.00017688487523374698,0.008009002862063616,0.0005496868202117211
0.0712209869614206,0.03835725131667985,-0.2791223869086793,-0.017163201908163547,0.030985800925413084,0.06834638800120992,0.005549833730168838,-0.020312678841492925,0.9567114216631801,-0.00010223751167493234,0.008080223849025037,0.0005880440715284011
-0.09675347440064211,0.05114214158596155,-0.27279789051452674,-0.03449114828883885,-0.014076649561018461,0.12172764901941463,-0.006115842313457627,-0.013536338566231116,0.9741337568294418,-0.0003750354021894591,0.007983470374624395,0.0006391862131143626
0.04263256521698827,0.17330272135624628,-0.14381588091110126,-0.0013011629992333868,-0.05055959704192449,0.10174909320680511,-0.005276376785206188,-0.0060296527930998375,0.9640210563581423,-0.0005188512831005603,0.008026102939841384,0.0008124889344706088
-0.14218518038189631,0.16799283426229356,-0.15163905660330465,0.02524802249608781,-0.07234502002699712,0.10289779936315124,-0.003417594133883002,-0.0195932106010921,0.9637050721305802,-0.000670490339703865,0.007883917759459487,0.0009804817687329025
-0.19616470872911146,0.3625618106193572,-0.08948035300825109,0.12575441341143656,-0.01791384617879058,0.06017984339705773,-0.0068033373311591795,-0.018645279361799865,0.9666489757422236,-0.0007599706927121161,0.007687753050730376,0.0013430435793522599
-0.34269021793830207,0.2779696939034488,0.011193002832760715,0.08430051839408487,-0.04632143979083106,0.0805996433362187,-0.0022959709938334943,-0.010425629079030815,0.9636564860617893,-0.0007487776898793554,0.007345062832792074,0.0016210132732557088
-0.29419428080742804,0.2164207797944324,0.15017611240352696,0.07799466721226758,-0.08986601064723936,0.12449534485094362,-0.010649314603015297,-0.013144631364663692,0.9656661111722208,-0.0005986015774758285,0.007050868551984645,0.001837434053050141
-0.5390188712173571,0.26447072505793406,0.1128931634343169,0.11241688744456971,-0.10753140611642871,0.04612652678884807,0.00190784024664232,-0.012767455425021577,0.9659382330187991,-0.0004857084140415116,0.006511849680767287,0.0021019047781080753
-0.46582386469140985,0.32942447615662723,0.03356842090969106,0.15957301445460145,-0.07478530009286767,0.07800738890683188,-0.002325435402940732,-0.015083734667984437,0.9597825200882075,-0.00045213999313182054,0.006046025816075879,0.0024313292542647025
-0.4257477033335781,0.25182361000863657,0.08766840883717417,0.18664068722316118,-0.10028314995433533,0.03272808162790336,0.002931516094882627,-0.025083403493439734,0.963207169119204,-0.00036447158429464636,0.0056202781127423,0.002683152864273339
-0.5282935735989418,0.18295496704857453,0.2710976015056406,0.13085908082185366,-0.06983827179670542,0.01052412850394071,-0.0044790923352169745,-0.013525844745259256,0.9747257340697675,-9.337398278900572e-05,0.005091984539143358,0.0028661078313219138
-0.6182099087393846,0.13079752873078818,0.1795099205044967,0.18026132567521772,-0.024304320133573438,-0.0438836019116273,-0.01084441522975775,-0.02374726950772804,0.965462360305797,8.6135937715491e-05,0.004473774630403974,0.0029969053600527023
-0.5923109214724865,0.13217615400418875,0.23949209723186432,0.12467042762601016,-0.12477065436598797,-0.04578339002296427,-0.007037512365953727,-0.01622156946786755,0.9625096022691569,0.00032562803494735535,0.003881463708931487,0.0031290815140568905
-0.5193076749399113,0.03189404163630569,0.32294166472035357,0.08227063119507984,-0.05611136474215865,-0.06405244164389175,-0.010223769268009341,-0.019806100042601665,0.9665867878496384,0.0006485696996677089,0.003362156033991576,0.003160975555693196
-0.583783175085485,-0.07545159967378379,0.29949597149012047,0.05430479827110987,-0.0038624796708940767,-0.13179014076864384,-0.0005938457193842253,-0.014712522961772348,0.9671803418981656,0.0009480656711578294,0.0027783728589060907,0.0030855239560194127
-0.5136459467096841,-0.0915447617826417,0.14018929637603558,0.02678634054584067,-0.019391450843126355,-0.1745285505022519,-0.002717632814514186,-0.01317549204952483,0.968586054241628,0.0010882549675338647,0.0022647269121964064,0.0029939791942367715
-0.6005879234168042,-0.16189050756916964,0.15782393858606497,0.000770728208874966,0.046157203882926226,-0.12921762901490552,0.007329090516549703,-0.01367704257947812,0.9607414398886998,0.0012460789061199298,0.0016641389887796017,0.0028320886866676017
-0.4637645366208881,-0.22373292602212613,0.13739868868462154,-0.031420839455497535,-0.0056786533889142225,-0.1604314603463776,-0.0004890675385982031,-0.011727515562363391,0.9702684056478914,0.0013834775948045512,0.0012003744521587138,0.0026083557606454756
-0.3783382125587515,-0.23076490836289645,0.18266378249379459,-0.04369654938002041,0.05640971640530083,-0.14753966079416186,0.004372453039364279,-0.011115051423286003,0.9660889486134258,0.0015661413772983458,0.0008220362395999621,0.002377590852282579
-0.3736674993896017,-0.42633729006725524,0.0978936284332233,-0.12355485870869408,0.03028716027446965,-0.16746174830515223,-0.00039111896729222156,-0.022580761080529557,0.9649392806370147,0.0016640350057315692,0.00044836874021036044,0.0019512535622153238
-0.2790748789564447,-0.4107067417578876,0.07022781683336662,-0.13233607374167838,0.013369775973415307,-0.1405453897975397,-0.004781742326888943,-0.020014377242121427,0.9599210343743295,0.0017342628225649357,0.00016929386125391567,0.001540546820457436
-0.27191269079569697,-0.4256330694211277,0.026127045634018978,-0.17072338624348365,0.033338146788375614,-0.14853627706762446,-0.004754508412414964,-0.011960049119002487,0.9664206794014194,0.0017603898681989548,-0.00010261882954178132,0.0011149137510363084
-0.15411144408825314,-0.4750474008316814,-0.024719434438867267,-0.1515026349239362,0.06456632602123862,-0.16060961412738134,-0.003761042816219185,-0.01537615058760906,0.9605563415071574,0.0017356704337600877,-0.0002567302736300344,0.0006398663502046269
0.02791303257350808,-0.4915366010264135,-0.13307271600632714,-0.20289809845803386,0.051429295331856105,-0.08188634091348389,-0.0080356779904222,-0.01441270856794315,0.95848499602877,0.0016025977177537604,-0.00022881724105652636,0.0001483297491782134
-0.0011405263239317445,-0.4108162494504164,-0.07750396300664794,-0.16876136379516923,0.07202360178654986,-0.10541541360423447,0.00434755042121689,-0.010308291136494452,0.9660160306684605,0.0015250937547471124,-0.0002299577673804581,-0.000262486500272203
0.034872227379613784,-0.3767335290133535,-0.18548493174300865,-0.18011176960023076,0.015016858145388164,-0.007775146828274697,0.011832709379409648,-0.010704692012129504,0.961506394560087,0.0013396088230041038,-0.0001950855400008443,-0.0006392200292855565
0.2590676700592665,-0.38578097276130763,-0.3519330238938912,-0.26371632639483833,0.06821811763242193,-0.01185848086608248,0.013956306213876021,-0.01486943153972154,0.9599737456889953,0.0009876757991102126,6.398213005842221e-05,-0.0010250010020468642
0.326385304374084,-0.2080698134968793,-0.20204639839525224,-0.2302552665460864,0.02877270023758196,0.06667779532415104,-0.005172294300438455,-0.01792260183077334,0.9535333052359235,0.0007856294007149603,0.0003903674344325062,-0.0012330708155437434
0.30836289851196047,-0.2618551926440091,-0.15573723695249322,-0.19735252980272147,0.018222753960221667,0.10391187861842191,-0.003252145619400874,-0.015806100433181508,0.9638560713940224,0.0006298921637624671,0.0006987303329444668,-0.0014949260081877525
0.3376744553165306,-0.2780257025467844,-0.28630543054394486,-0.1301424337348871,0.04591800146099455,0.006137839427559374,-0.004889919007487676,-0.014669750330486703,0.9589409504155015,0.0003435867332185222,0.0010364047882609974,-0.001772951710734537
0.42013167490273867,-0.05305715664777666,-0.16327164512016568,-0.08594846399000992,0.0029383790227529667,0.06482488740745028,-0.00819420899182463,-0.01370106878381989,0.9616818080175885,0.00018031508809835653,0.0014565364631637361,-0.0018260088673823138
0.5722836165507761,-0.08581321366004821,0.010548380942367902,-0.10651712136140123,0.0661443661493051,0.11630341762008115,0.007556839752499883,-0.014683624997428896,0.9654271660354131,0.0001908634690407244,0.002028820079714512,-0.001911822081042362
0.4678946400645483,0.18235376168642678,-0.09770379268855796,-0.10629804667303462,-0.0033416753228871247,0.15370832580393526,0.0004823808021011326,-0.00207148852171506,0.9595899709918024,9.315967635216645e-05,0.0024967147197790603,-0.0017294683193559352
0.6981975670463864,0.08483996199185848,0.014634637415704758,-0.053733338409963464,-0.05073002580657678,0.19562489973395902,-0.008219140709893767,-0.021689142198437233,0.9620523503669776,0.0001077943137678712,0.0031949122868254465,-0.0016446283573640767
0.5029452735055977,0.14543298063995277,0.22143701187331635,0.025252783192141845,-0.08620983821879234,0.19822249483492754,0.0011364324321515215,-0.002740789610000115,0.9654622408362202,0.00032923132564118755,0.0036978575603310443,-0.001499195376724124
0.5195470324423036,0.3503322220509901,0.1551068669392327,0.05705652663171412,-0.045944599573427974,0.1447391224163241,-0.0026358166999161325,-0.01129145838018229,0.9636848122725544,0.00048433819258042026,0.004217404592773348,-0.0011488631546731336
0.4914952482264811,0.3130896402133323,0.15099418921292312,0.11680859077473119,-0.05527396301336704,0.1407890115954618,-0.0019965317485040263,-0.012235119545857964,0.9621366967934404,0.0006353323817933434,0.004708899840999829,-0.0008357735144598013
0.5177542753508221,0.3790665275041394,0.15090074178355453,0.13951398685756247,-0.10275472133084011,0.12436263749419071,-0.001442465988967809,-0.010189188245895977,0.9662979262215134,0.000786233123576898,0.005226654116350651,-0.000456706986955662
0.6383958447758682,0.34645517663388803,0.2511330511910787,0.14795000552508467,-0.06972553036745892,0.0949334327924216,0.0025812891450866485,-0.0011603742544155724,0.9590585108303762,0.0010373661747679764,0.005865049961126519,-0.00011025181032177389
0.42979422264738465,0.42357226650333385,0.21802850530486517,0.1855083044785735,-0.09363207096062345,0.054945108083478036,-0.0002359439364786718,-0.012504456783198411,0.9473731302738312,0.0012553946800728417,0.006294844183773903,0.00031332045618156
0.43907765210493266,0.4283544720741597,0.28961772256430046,0.2100797149434486,-0.11278005528713286,0.0671077852346355,-0.0076403887729575865,-0.0035029719128166718,0.9561285666956517,0.0015450124026371423,0.006733921835878837,0.0007416749282557197
0.47308354847346484,0.3768910628194954,0.2611050011232815,0.22132085619227518,-0.14856187192611495,0.06465143351322401,0.0038022667400365623,-0.009464939475665214,0.9679740721593392,0.0018061174037604238,0.0072070053843523016,0.001118565991075215
0.41341433001567446,0.5000997174430104,0.05022127148418952,0.2387169924710378,-0.19476995352221937,0.06807863735345,-0.007526421205750683,-0.014207289232562698,0.9672823577996634,0.0018563386752446132,0.007620419714367975,0.0016186657085182255
0.19289832464056578,0.31893854175010217,0.02732435337121847,0.28760883626368994,-0.11407364455020355,-0.009447993792689879,-0.0002463037568579249,-0.01654558725139347,0.9671974809832234,0.0018836630286158318,0.00781331803900854,0.0019376042502683277
0.14618561577526612,0.3068353238527101,0.10561124987073837,0.24338881462215048,-0.09066987964143317,-0.025074688277837688,-0.0006355670040968013,-0.00791528433704146,0.9613263721511024,0.0019892742784865703,0.007959503654783808,0.0022444395741210376
0.22628597175859172,0.23075852440952388,0.03848754943188687,0.2377420392411202,-0.10433965835095702,-0.004685616475424108,-0.00037250847290492325,-0.00713933765574812,0.9502217867040653,0.0020277618279184568,0.0081857896265424,0.002475198098530562
-0.024750214353465277,0.18534843035831236,-0.08100089905902155,0.15300155854428135,-0.09383846388978241,-0.04317062402801419,0.00654483240806116,-0.00454202900754992,0.9637807591079142,0.0019467609288594354,0.008161039412188936,0.0026605465288888743
0.11185929764870739,0.06809215596858785,-0.24328787007258967,0.16258406452284865,-0.11117836509035503,-0.07032408404435243,0.006032339039386364,-0.008608305203154098,0.9691411150893723,0.0017034730587868455,0.00827289870983764,0.0027286386848574622
-0.1961405883431002,0.11309290177415957,-0.24582818717536234,0.23195756140431076,-0.08439463034359279,-0.11253846198392504,0.002901303326908485,-0.013954558985959768,0.9587223721894311,0.0014576448716114832,0.00807675812149454,0.002841731586631622
-0.18738044214524407,0.1122576087196554,-0.3303177313654329,0.11357336094371673,-0.13134950049800337,-0.06996089963059382,0.004947817439818225,-0.005657652178946974,0.961640588102793,0.0011273271402460505,0.007889377679349297,0.0029539891953512774
-0.30403585204942435,0.0017388809727308802,-0.2322019096717816,0.07879011322134027,-0.01704825649091508,-0.07011283034626008,-0.0016002863454060085,-0.010872059019830594,0.9702653615696172,0.0008951252305742689,0.007585341827299872,0.0029557280763240082
-0.051552174307520404,-0.04140248912688417,-0.25186899189369827,0.022919992619721444,-0.07581813250819677,-0.07807986661391704,0.0012525057468778691,-0.006573933093137536,0.9634947410280891,0.0006432562386805706,0.007533789652992351,0.0029143255871971244
-0.296806783509157,-0.13367696233919357,-0.23879695434932788,0.011703637970610964,0.0025614448550625793,-0.06351709580272602,-0.003031459073085505,-0.008542119161770159,0.9598503935859171,0.0004044592843312426,0.007236982869483194,0.0027806486248579307
-0.3510988529561997,-0.2640948772290005,-0.3153222641505555,-0.019786169099593444,0.0009414426238023958,-0.09383587228693221,0.002928176748976833,-0.0038890177312763665,0.9505040967749222,8.913702018068709e-05,0.006885884016526994,0.00251655374762893
-0.15064999137558932,-0.31894930980103336,-0.29752351761454765,-0.001518219837605193,-0.011838937779992766,-0.05175783912983343,0.00842223944599444,-0.014701876187767492,0.952952589101619,-0.0002083864974338606,0.006735234025151406,0.002197604437827897
-0.2830180439337254,-0.30893260412936396,-0.3323101894491378,-0.06167254112857441,0.04561327958872631,0.062129170662138154,0.00901721819616506,-0.016220720710456847,0.9660151961938742,-0.0005406966868829983,0.006452215981217681,0.001888671833698533
-0.3179097703896355,-0.23102109237875718,-0.2533475224763839,-0.076757617753563,0.06403687151882234,0.026285062223409608,0.007088491824524805,-0.005571620652301799,0.966322265991614,-0.0007940442093593823,0.006134306210828045,0.0016576507413197758
-0.23989926008841966,-0.1878857761243904,-0.16962593263525322,-0.13924371013983322,0.056771537448212096,0.04283975149044188,0.008260308884304917,-0.0064202781636903666,0.9679507644297014,-0.0009636701419946355,0.0058944069507396255,0.0014697649651953853
-0.24265003873316668,-0.30800900781024715,-0.08125899426739787,-0.13670314369963774,0.0462453195791031,0.08233648993673509,-0.0034878252269759536,-0.013071040450047556,0.9647415451658349,-0.0010449291362620333,0.005651756912006459,0.0011617559573851382
-0.1677996390411271,-0.20310525769946222,-0.026547606026914774,-0.14176553147085094,0.047155778795077076,0.06495369386566764,0.01225180072410923,0.0016581537956736649,0.9668394537317357,-0.001071476742288948,0.005483957272965332,0.0009586506996856761
-0.26006272397844266,-0.11486825979182724,0.03596674842735405,-0.1542712370528795,0.0404832489460433,0.10225968107694092,0.004491000573415387,-0.0030064917830366347,0.9709471585852593,-0.001035509993861594,0.005223894548986889,0.0008437824398938487
-0.20771028385821722,-0.04526932533150803,0.12315624802655187,-0.12420116944294257,0.07216034295667392,0.11749821947224558,0.006595318492284833,-0.004445335506432023,0.9603405564564189,-0.0009123537458350421,0.0050161842651286715,0.0007985131145623408
-0.059539835244473344,-0.0065223606488646335,0.24221204246968997,-0.116356238490132,0.08995242131105477,0.15989224559967938,0.0035495395011168225,0.0017961295093745907,0.9635161190325058,-0.000670141703365352,0.004956644429884197,0.0007919907539134761
-0.1293794238524471,-0.035811967108782095,0.31772872155248494,-0.04360623331666262,0.11005017994627889,0.09031256241239938,-0.003737747289551997,-0.00196296244363246,0.9589204287489275,-0.00035241298181286714,0.0048272650060317505,0.000756178786804694
-0.012599480695728658,0.18485962414459137,0.20744551199541256,-0.05093474858135661,0.1101957287446745,0.12408249587224797,0.010815419422927977,-0.013708573256462644,0.9666732863739288,-0.00014496746981745458,0.004814665525336022,0.0009410384109492854
0.10090829104391347,0.21629331166410712,0.29071812462108165,-0.026996145878929474,0.07187880303125448,0.08039898968279745,-0.0016959660097331732,-0.00945695195870638,0.9648689285635943,0.00014575065480362708,0.004915573816379935,0.0011573317226133925
0.16740213381969737,0.11280710859142726,0.38058851318447684,-0.009702940949080223,0.07161959035779492,0.044008387798553185,0.0005692366039633748,-0.011665442802280806,0.9598089350674611,0.000526339167988104,0.005082975950199633,0.0012701388312048197
0.269155094332132,0.23899504141040878,0.3025735958350466,0.029519968750803514,0.08095356815558599,0.06577702504235672,0.001990936241668186,-0.00371036340610227,0.9588556118211154,0.0008289127638231507,0.005352131044531765,0.0015091338726152285
0.2864552589606517,0.22850464116406302,0.42422291088638175,0.12243454705232379,0.03169461774938368,0.09124873479660563,0.0038285546278446,0.000148323986881152,0.9688799140816647,0.0012531356747095324,0.005638586303492417,0.0017376385137792914
0.2519219535192287,0.24650130686949256,0.3234612804863516,0.15832208526083152,0.05206809696495553,-0.012563082107517562,0.00826213842358435,-0.010413747756250556,0.9617135560590152,0.0015765969551958842,0.0058905082570116455,0.001984139820648784
0.26707545722374587,0.14881570421721838,0.07361692812146117,0.1446985831446436,0.04799813888577855,-0.01798737130671766,0.007318185424088897,-0.002979508180190662,0.9638588097876819,0.0016502138833173455,0.006157583714235392,0.0021329555248660024
0.24896527697823276,0.47002518128040016,0.23076040021599653,0.14212572352653055,0.011276997625337903,-0.02498926162794595,-0.003901962486969229,0.0007734378125176479,0.9626069140699175,0.0018809742835333419,0.006406548991213625,0.0026029807061464026
0.3672057023217683,0.20745795412776585,0.2149086191598572,0.12794481752665132,-0.010133335811556506,-0.059346091224277454,0.0037896929972751616,-0.0018802598673272534,0.9648078500788569,0.002095882902693199,0.006773754693535392,0.0028104386602741684
0.33862335801653115,0.1967963856067922,-0.055850384598498226,0.15417471221137197,0.03304451349345524,-0.054041749947540456,-0.0005370619338849357,0.002760039320101046,0.9620975392752831,0.0020400325180947006,0.007112378051551924,0.003007235045880961
0.46022755261404974,0.19176847969069022,-0.013901667297163016,0.18476702297799238,-0.047307672388033295,-0.1287693929856206,0.0018476301739348512,0.000670086410488489,0.9611901171325407,0.0020261308507975376,0.007572605604165974,0.0031990035255716506
0.35176191739987495,0.26377800779106675,0.009625322850997958,0.10183616770644024,-0.04562894769680311,-0.1556571873183761,0.00011606819420702415,-0.009357292196074733,0.9577173316765158,0.0020357561736485358,0.007924367521565848,0.0034627815333627176
0.3320057731743266,0.11107557783364287,-0.12304916743488889,0.09143692317091746,-0.030215294181296825,-0.10466747917198066,0.0007692602517697794,-0.0017914150287212014,0.9617344117398033,0.001912707006213647,0.008256373294740174,0.0035738571111963604
0.22256175017746319,-0.07669383602588721,-0.18404694036380786,0.12240499349246835,-0.08615936544623286,-0.1363606513645791,0.010699421120055945,0.010405995630966511,0.9624020329136537,0.0017286600658498392,0.008478935044917637,0.003497163275170473
0.14538933947867266,-0.06119268479910076,-0.24418657759932086,0.10235030782683016,-0.09441938022875927,-0.16013714018873093,0.0030935221702848344,0.005443284567929505,0.9599905256048111,0.0014844734882505182,0.00862432438439631,0.003435970590371372
0.14681358368523945,0.02810236943551854,-0.22779334784508815,0.07769264102821238,-0.06187120924399345,-0.07065107533783252,-0.0023974645397725775,0.004050779144408538,0.9648651662115182,0.00125668014040543,0.008771137968081549,0.003464072959806891
0.08506907436381714,-0.1428924485385419,-0.20546913991324448,-0.022252450024465374,-0.08746958869221909,-0.11954060723864669,0.009885082503339289,-0.0030370946455059297,0.9605827745176629,0.0010512110004921855,0.008856207042445366,0.003321180511268349
0.073448836863801,-0.23919309023959245,-0.10986494914792297,-0.019452672057196065,-0.022901799853057955,-0.07814978337118567,0.011090179939265532,0.0005759499671866321,0.9410235643662439,0.0009413460513442626,0.008929655879309167,0.0030819874210287566
0.09434093693034576,-0.2005315247264498,-0.04319213709965425,-0.04302487483028548,-0.025652827646744706,-0.08093817184947759,0.004389879847136786,-0.0027806400383280404,0.964093406301411,0.0008981539142446084,0.009023996816239511,0.0028814558963023065
0.05286176448541273,-0.24772008914912313,-0.08214187614899529,-0.09199400791104972,-0.06901969135780796,-0.06502675339771266,0.009797484697202867,-0.007520584345515581,0.9648479310530295,0.000816012038095613,0.009076858580724925,0.002633735807153183
-0.07884731775197396,-0.34317461413466854,-0.10930648659281267,-0.1299010710388921,-0.042448754402348424,-0.059275307520522215,0.008034141097059539,-0.004291663429993492,0.9656596157653315,0.0007067055515028002,0.008998011262972951,0.0022905611930185144
-0.1601268008276949,-0.3729733434226379,-0.027458338521848633,-0.16138945393968024,-0.05472584859456174,0.02319538047737138,-0.002617535745404684,-0.002082312117203025,0.9698889070355218,0.0006792472129809516,0.008837884462145255,0.0019175878495958764
-0.3704619774417626,-0.27514277262186315,0.06351352368058438,-0.14578384041852538,-0.03540826466935902,0.031241286945379497,0.017960378359359548,0.0006640012766901012,0.968925891873957,0.000742760736661536,0.008467422484703493,0.0016424450769740133
-0.35916669040913474,-0.47141540247463926,0.03569219465551663,-0.2393101157374177,0.00820165505300048,0.05574077282308013,0.012157577054551033,-0.00021171714609127313,0.9643629056531661,0.0007784529313170527,0.00810825579429436,0.0011710296744993742
-0.33122306053481854,-0.5396057189179609,0.017761164947828256,-0.17168281846922168,-0.013236078148394963,0.0933987086573415,0.006047281425596301,-0.0035252554999821188,0.9658510027331585,0.000796214096264881,0.00777703273375954,0.0006314239555814131
-0.3762657192684351,-0.45021051509567467,0.10881255427231587,-0.22617189550547806,-0.017280461214746818,0.11794148633324894,0.0045395662147136185,0.006434906142810209,0.9638981968426883,0.0009050266505371968,0.007400767014491104,0.0001812134404857384
-0.5725609834936148,-0.39990173217282077,0.11594724038981905,-0.21800908714418968,-0.07659794981440304,0.13177598090667766,0.012045189081488586,-0.00037500569144807217,0.9603178192459443,0.0010209738909270159,0.00682820603099749,-0.0002186882916870824
-0.5598025108381117,-0.2822471649320433,0.16189217830323188,-0.20531364358426266,-0.018921489399761463,0.14638414808464165,-0.001107667395926929,0.00585825135279859,0.9505083292127907,0.0011828660692302477,0.006268403520159379,-0.0005009354566191257
-0.5351662934041765,-0.3087787549502489,0.05970648184959523,-0.16027568277632115,0.07379242728786892,0.1580429271209596,0.010686210279683223,0.007642865114302709,0.9468751806598382,0.001242572551079843,0.005733237226755202,-0.0008097142115693749
-0.6698277548843254,-0.3316558883698837,0.2830885670689949,-0.11518823644006604,0.07398937648498409,0.18437858945540264,0.011228560908919126,-0.007081094524490079,0.955116875551011,0.001525661118148838,0.005063409471870876,-0.0011413700999392585
-0.6159997872470923,-0.12094083083999374,0.19942139875098547,-0.10055248426181353,0.010650806818825237,0.16525506772227297,0.011111251365252726,-0.005650017476811531,0.9694235630615641,0.0017250825168998235,0.004447409684623784,-0.0012623109307792523
-0.39541690878148533,-0.09850706312380053,-0.03016802941100266,-0.13212409899539057,0.03423012813809731,0.09857535611132984,0.0014339059533034397,-0.0019494584375451855,0.961950193054881,0.0016949144874888204,0.004051992775842298,-0.0013608179939030528
-0.4024753225147931,-0.01396219012075087,0.09690876851361274,-0.10570454316893885,0.040588612682595865,0.1334097037359444,0.001262920735195054,-0.001302033859090442,0.9603148856712922,0.0017918232560024333,0.0036495174533275054,-0.0013747801840238037
-0.539349951229271,0.031562528474792136,0.21270266545246314,-0.0685211096968314,0.04049558806660457,0.1299820582479328,0.001742943446131364,0.014093567327191357,0.9615059655591329,0.0020045259214548964,0.0031101675020982346,-0.0013432176555490116
-0.40933017373073965,0.11506192539569315,-0.031223034366879232,-0.05182945500203544,0.01665976218558185,0.12663668062598313,0.0062961523047806636,-0.00912071879427932,0.9627621291004513,0.0019733028870880173,0.0027008373283674944,-0.0012281557301533185
-0.39962844927045665,0.22680807467158048,-0.11355053625642415,0.051540213351221255,0.018220006613194086,0.07444074853302286,0.007305354349348078,0.004733674362721165,0.966906337032378,0.001859752350831593,0.0023012088790970377,-0.0010013476554817378
-0.34247664671568334,0.24719763610930817,-0.05495462318723531,0.11324167792264439,0.03449118841146297,0.09141543754268218,0.005294726747127802,0.007058495707866675,0.962704197334211,0.0018047977276443577,0.0019587322323813545,-0.0007541500193724296
-0.3126641989633626,0.4387518211055469,-0.2704771580400362,0.16395313292583213,0.03423289110405163,-0.021484262976364375,0.004563598351472017,-0.005409852316801937,0.9618765748683195,0.0015343205696043217,0.0016460680334179922,-0.00031539819826688267
-0.25961697501252723,0.32708297901093486,-0.1789502386390462,0.19216033097355262,-0.026264979932033278,-0.017267109552115967,0.016562597219780317,0.007081711808620743,0.9641388117796872,0.0013553703309652752,0.0013864510584054648,1.1684780744052215e-05
-0.1940065415871516,0.4418740239819063,-0.332802579947182,0.17709167502853831,0.055762329275053986,-0.009935955887975608,0.009892185486973216,0.0027614729764454645,0.953120961026963,0.0010225677510180933,0.0011924445168183132,0.00045355880472595857
-0.04296586142743072,0.45366782560241237,-0.3166350321547712,0.19883734545153323,0.003771474323020228,-0.09806655009874556,0.013769971163861718,-0.0025148071559633204,0.9565157560064963,0.000705932718863322,0.0011494786553908826,0.000907226630328371
0.05521813482609444,0.4631232359667018,-0.22241851798737483,0.183578710766985,-0.01422753862621877,-0.08242108312295106,0.007567280135660294,-0.006450167207229062,0.9618168521207401,0.00048351420087594705,0.001204696790216977,0.0013703498662950727
0.16124412622490475,0.4790882994099282,-0.4180107782983816,0.22143769008543146,-0.008046824370667643,-0.07898896655807884,0.011468919974619369,0.011936904194395215,0.9675125012002436,6.550342257756543e-05,0.0013659409164418817,0.001849438165705001
0.33642687053063425,0.4536173500871944,-0.30106768954745045,0.2296760461835549,-0.0613323317268379,-0.08400496544101785,0.015054995881395077,0.006540980155969532,0.9551580723124359,-0.00023556426696988507,0.0017023677869725158,0.002303055515792195
0.418181238623033,0.34151092098771313,-0.24623564034234402,0.22901510005235526,-0.09824640573261091,-0.05006278897454668,0.010571898303368039,-0.0086896497511017,0.9559086774350282,-0.000481799907312229,0.002120549025595549,0.0026445664367799084
0.37063046516835557,0.3355658740749214,-0.23014743494737394,0.231881030039143,-0.12231178179168481,-0.059839210936884664,0.00722235123491463,0.0059566466384974,0.958210036747169,-0.000711947342259603,0.002491179490763905,0.0029801323108548296
0.24377182024522281,0.15753684874941548,-0.20906201600361657,0.2704706020199093,-0.058266324940703135,-0.07888945143471514,0.004495635486156968,0.0032152760792421484,0.9643090533990961,-0.0009210093582632195,0.0027349513110091275,0.0031376691596042452
0.2901230859746245,0.32342435923390567,-0.12772215309118934,0.17053198706944334,-0.07138781707831374,-0.10878689067756007,-0.000701122396708791,0.0060403714805571255,0.961583360174793,-0.001048731511354409,0.0030250743969837523,0.0034610935188381514
0.5067062503574873,0.08589241183865778,-0.21120146822668817,0.1782257127640034,-0.06971431282027318,-0.05897469092454986,0.011367955374484099,0.008066030470322647,0.958223288562427,-0.0012599329795810973,0.00353178064734124,0.003546985930676809
0.5820260273196118,-0.04342416424306142,0.09654589084338087,0.09727992064836566,-0.06539143599448172,-0.010630104946780126,0.011222947111291766,-0.00021978584283686075,0.9630248475518511,-0.0011633870887377163,0.004113806674660852,0.0035035617664337473
0.5944828045812022,-0.05484181315366502,0.0834406463369608,0.07515613232501622,-0.11390414470605992,0.0035938245543663773,0.014898040253756299,-0.0002561959443184744,0.9592602016758353,-0.0010799464424007556,0.004708289479242054,0.0034487199532800827
0.4334313736858465,-0.055591487535535715,0.19428299867825227,0.026040844088552242,-0.03883269521599356,0.019936522027893384,0.011046819285851169,0.0008043362038002641,0.9553271590029881,-0.0008856634437225032,0.005141720852927901,0.0033931284657445467
0.5365167935462027,-0.05485670821771811,0.1651536652635483,0.02206486331949878,-0.12203837613652997,0.06840329075369932,0.008044072327676174,0.010170746547837665,0.961271211710819,-0.000720509778458955,0.005678237646474103,0.0033382717575268285
0.5346425024057325,-0.16311632648164898,0.23240068061923283,-0.036020354454414386,-0.13845356747055446,0.08801752195557978,0.00880201793704731,-0.0030642066983526256,0.9552037767648206,-0.00048810909783972214,0.006212880148879836,0.00317515543104518
0.5743170766251109,-0.21090940096838265,0.3801111074424349,-0.020345014920578115,-0.11945810244589947,0.09159639068868779,0.006508590750787238,0.011452345540686453,0.966066917776514,-0.00010799799039728719,0.006787197225504947,0.002964246030076797
0.5079844320498867,-0.1780622295432806,0.22249758569749906,-0.15437199236767501,-0.04090811790474791,0.14276365494515145,0.004774170365936698,0.004952322446820267,0.9575882173221345,0.00011449959530021187,0.007295181657554834,0.002786183800533517
0.521822314596782,-0.27516041164062877,0.38730307055331886,-0.0546482832619554,-0.07580257142824907,0.054640399848880604,0.014233066061162796,0.0007560364811665214,0.9635215619417685,0.0005018026658535307,0.007817003972151617,0.0025110233888928878
0.4890502306976139,-0.2691750373236929,0.37319050556483485,-0.09539707206613035,-0.026907259326087736,0.09037814030960922,0.020407824215774775,0.009874833259547973,0.9640205067876254,0.0008749931714183656,0.00830605420284923,0.002241848351569195
0.28277552859802546,-0.21024132284690933,0.4484047768359235,-0.0830158801055232,-0.004207281638730377,0.05786630641434557,0.006560200024074377,0.006493142328636062,0.9641611489761516,0.0013233979482542894,0.008588829731447254,0.002031607028722286
0.1854523385806579,-0.16016163501377378,0.25548250008591095,-0.16385586424105775,-0.06499251502806547,0.12177611747103544,0.019335882370343623,0.0081048841601704,0.9600853647997811,0.0015788804483402004,0.008774282070027914,0.0018714453937085124
0.15780524080484956,-0.16498416298681573,0.1983641592016536,-0.15682626337008043,-0.031244985057686712,0.08196188004120501,0.0032616035236010315,0.006747771132188151,0.9590558263372437,0.0017772446075418537,0.008932087310832764,0.0017064612307216964
0.09806904657130378,-0.25295581068224116,0.23840232800325917,-0.13362675832392912,-0.029104851584645652,0.051301094026799415,0.013838580308622575,-0.00031659842188272447,0.9554620125768762,0.0020156469355451126,0.009030156357404067,0.0014535054200394554
0.10902431483123122,-0.0036553060637397744,0.043462622599972134,-0.12519663374108286,0.03995333661473382,0.046050056344443854,0.014128630643602523,0.0004595606803148352,0.9562869435824843,0.002059109558145085,0.009139180672235297,0.0014498501139757155
0.05975088135468263,-0.04274411972506799,0.13840818144143213,-0.049459663876469,0.04983106475014236,-0.01773853640994126,0.017089907304441872,0.0099193283523774,0.9536167511835936,0.0021975177395865174,0.009198931553589982,0.0014071059942506476
0.040452702703308266,-0.1531092923834706,-0.05734850135904121,-0.09628839395867811,0.06120082254613042,0.0511238602546236,0.011583171256778031,0.003385982137158264,0.9510174596566637,0.0021401692382274763,0.00923938425629329,0.0012539967018671766
-0.1407064645729742,0.014790976631845053,-0.05344136632765152,-0.016097844525671975,0.03142626089636042,0.00619640520975402,0.012013657672902706,0.006024491592111634,0.9633523885796893,0.0020867278718998245,0.009098677791720317,0.001268787678499022
-0.24958128836836235,0.1908537353443621,-0.05736639259691017,-0.020675807082319086,0.09224115188827248,-0.1203429049682014,0.012379544020705503,0.011609494706748817,0.9688137336334508,0.0020293614793029146,0.008849096503351955,0.0014596414138433838
-0.19109178121915077,0.07440490530314199,-0.11156307445998481,0.03003873096816901,0.06957061947711006,-0.055404881408646973,0.018241266854381398,0.015293176000408179,0.9572511977638812,0.0019177984048429299,0.008658004722132804,0.001534046319146526
-0.361662759657026,0.2023874692793049,-0.18335992320315042,0.06712968251779117,0.09732795811337264,-0.10080866868650211,0.013165220861502642,0.0074752912126147,0.9598557558889932,0.0017344384816397795,0.008296341962475777,0.0017364337884258306
-0.2965828334557421,0.3761671673332876,-0.17488151921733627,0.1561535707713808,0.08515153743926376,-0.11160278481045263,0.007917595524531286,0.002842526552858402,0.961473528753389,0.001559556962422443,0.007999759129020035,0.002112600955759118
-0.25260682677305035,0.30846795080461326,-0.25511760069081696,0.08465465760695294,0.07557627634727761,-0.1015638634128243,0.012002277596963139,-0.0014231602481204484,0.9613527890226304,0.0013044393617316263,0.007747152302246985,0.0024210689065637314
-0.3749579341374835,0.17567833188639492,-0.23689749341284402,0.1352925330294721,0.1003137462210106,-0.15233810094977202,0.00796483779204097,0.004006163778926438,0.9569061218894487,0.001067541868318782,0.0073721943681095015,0.002596747238450126
-0.4407249553728243,0.24725488783941743,-0.17784308579814503,0.13229295409143646,0.11144516666165961,-0.10019461637227974,0.019921618306701323,0.022084435782648505,0.9586911919707507,0.0008896987825206371,0.006931469412736677,0.0028440021262895435
-0.21302457721589452,0.19646206662431995,-0.09757138897977802,0.16943403800262463,0.11338008208955486,-0.16262690769738647,0.01163602407203175,0.0127675512974007,0.9673970052151031,0.0007921273935408591,0.0067184448355207815,0.0030404641929138634
-0.27139974394450567,0.2717271867481127,-0.05016128740254817,0.14749099517964756,0.031731700631452954,-0.14468773609836905,0.01777308103327023,0.01165707078529766,0.9573518474061185,0.0007419661061383109,0.006447045091576277,0.0033121913796619763
-0.3274883339226865,0.2576274222546938,0.019053497624141193,0.1353127354171391,0.035019083692469935,-0.09227514803127825,0.009676839316551144,0.0018958478057824217,0.9651996851778725,0.0007610196037624521,0.006119556757653591,0.0035698188019166696
-0.1443534237911725,0.0968360047874595,-0.08698148938226784,0.1437393601214042,0.019248265754836767,-0.07162474529924623,0.0139973673668555,0.019291382769397035,0.9660189678087179,0.0006740381143801842,0.005975203333862418,0.003666654806704129
-0.3277869157378396,-0.001297823606960971,0.12363813649898955,0.15783859071449574,-0.009139295283954348,-0.12144705619920622,0.015587347129069853,0.003976216069986475,0.9576416599879267,0.0007976762508791739,0.005647416418124578,0.0036653569830971686
-0.03207710460477234,0.05753365816787116,0.12050240131329569,0.12309844049302696,0.06308621464417764,-0.03374885993917786,0.007745093997205793,0.009716704536008956,0.9562341160959796,0.0009181786521924696,0.005615339313519805,0.0037228906412650393
-0.12821532077464684,0.010318108615708338,0.1522447236648547,0.11209397466515614,-0.033226596450249286,0.006824661153943595,0.02019885323438212,0.015002029444489303,0.9586146517913835,0.0010704233758573242,0.005487123992745159,0.003733208749880748
-0.10489869393180133,-0.05095409139824577,0.1552297155045083,0.07556783864444831,-0.02940627584963733,0.01930518668999895,0.018550593957138328,0.012276202274752158,0.9609614027880542,0.0012256530913618328,0.005382225298813357,0.0036822546584825023
-0.11437791843078976,-0.1290270376039644,0.2049121332978323,0.041242963576043526,-0.011965329244229866,0.011951663738626805,0.022118243219127497,0.008871125326598873,0.9580517167741244,0.001430565224659665,0.005267847380382568,0.003553227620878538
0.03483006257463293,-0.26186173984179817,0.07400863387713022,-0.06570427977735743,-0.03436849500011751,0.08686261735878768,0.007194757323708712,0.006771898902450972,0.9605129626114711,0.0015045738585367952,0.005302677442957201,0.0032913658810367397
0.17119928869284617,-0.47603007493921246,0.014419637594970086,-0.08526991585807941,-0.013945815581633141,0.04174248003302144,0.023032815805871985,0.011442659251955345,0.9632487462749253,0.0015189934961317654,0.005473876731650048,0.0028153358060975272
0.1886239153311032,-0.3933387798989203,0.1701483198679692,-0.09365478071130741,-0.035321424395728704,0.11408193608766605,0.011555315874575386,0.005963399295700775,0.9557726056836595,0.0016891418159997345,0.00566250064698115,0.002421997026198607
0.2957571496859021,-0.3397454682307149,0.1844806028216408,-0.10976962469592419,-0.018197074952631738,0.12698325239511582,0.009217009045164721,0.011118842402059336,0.961809444862796,0.0018736224188213753,0.005958257796667052,0.002082251557967892
0.2556076614630809,-0.41770153588400655,0.02250703061773067,-0.1742412152080081,-0.033063568816941516,0.12188544106048887,0.01860760926991686,0.013780612777232644,0.960620888517005,0.001896129449439106,0.0062138654581301335,0.0016645500220838856
0.3357079742511076,-0.4074206630916111,0.049527057454262606,-0.22637590353838383,-0.07083935984699836,0.1607216198028888,0.017429867648799904,0.014072997203710575,0.9567672435971493,0.0019456565068933685,0.006549573432381241,0.0012571293589922746
0.3638056192033659,-0.5531067835097407,0.09331794480796822,-0.1872053290172506,-0.07935873780846493,0.15299039279095109,0.010901738833383941,0.0077484792367650745,0.9481012423723663,0.0020389744517013367,0.006913379051584606,0.0007040225754825338
0.22794775298871328,-0.44515799959688773,0.02653568794599076,-0.18832648647263872,-0.07239362124816279,0.18744935193249232,0.006193691334260108,0.013433610327371451,0.9588125600978874,0.0020655101396473276,0.00714132680457332,0.00025886457588564606
0.3832778835140992,-0.4171590783865463,-0.1552590894521287,-0.24302897712429092,-0.09580390386798586,0.10054201756012346,0.009256350487119605,0.010007188380844054,0.9622561251658368,0.001910251050195199,0.007524604688087419,-0.00015829450250090028
0.3994168865127334,-0.33247566283316277,-0.20779671373376002,-0.22047400406241863,-0.08810225164466831,0.1459666491698566,0.015569916245980565,0.013788256277841814,0.9577967561856389,0.0017024543364614392,0.007924021574600154,-0.000490770165334063
0.34624815831869654,-0.3250197943993928,-0.0870494918626363,-0.23970691203839975,-0.06083610922068112,0.10360727859272176,0.01932507881619342,0.013745467818832442,0.9565696948734176,0.001615404844598803,0.008270269732918849,-0.000815789959733456
0.30697264379722716,-0.2789817651436196,-0.26425895066059474,-0.16178832122158154,-0.12641701016459234,0.14633110637129665,0.020768184451908058,0.0117646264822466,0.9610903140451037,0.001351145893938208,0.008577242376716076,-0.0010947717248770755
0.18818940152242075,-0.2750907715480511,-0.2970279532117984,-0.1711473611821392,-0.03623730569585077,0.005710128631109831,0.019015448212054722,0.014648884798338901,0.9634092735975873,0.0010541179407264093,0.008765431778238497,-0.0013698624964251266
0.23581934209947275,-0.08749941774033422,-0.17259317257636864,-0.10587551029730188,-0.036551300105668746,0.01793465565176971,0.011068044558856162,0.011298079480644777,0.9538563091121924,0.0008815247681500408,0.009001251120337969,-0.001457361914165461
0.05989414135419928,-0.020300300391444683,-0.32345745108265334,-0.060333449843041675,-0.010926694852088453,0.0036650960457432127,0.021732455007016177,0.010446807750186249,0.9592166250678654,0.0005580673170673875,0.009061145261692168,-0.0014776622145569055
0.02017496492156079,0.00195934639865554,-0.3299676620242569,-0.03275656862694222,-0.026536650166204573,-0.0510184110189267,0.013990456126310169,0.026673173524838598,0.9590969649783097,0.00022809965504313052,0.00908132022661373,-0.00147570286815825
0.05451548480129769,0.04992996148567724,-0.3981311166132436,-0.05382124038848806,0.017362279451568798,-0.038474616273137086,0.018517970006378448,0.012675513856034572,0.9719235575829308,-0.00017003146157011306,0.009135835711415026,-0.0014257729066725726
-0.06051037554322329,0.3654302863550983,-0.22728923039658694,0.006206005389135806,-0.019800083316924625,-0.025790679632148268,0.0031860557773474366,0.0176307494516893,0.9550865595563224,-0.0003973206919667,0.009075325335871803,-0.0010603426203174744
-0.06797475523601842,0.21084603286153625,-0.20173318054675682,-0.009777626511102625,0.06513839261683461,-0.06010083633152751,0.0204019745281791,0.010952007465768555,0.9622343477106198,-0.0005990538725134569,0.009007350580635785,-0.0008494965874559382
-0.09228123215081122,0.3774562674162604,-0.1172018103329382,0.09449411149488562,0.04660837186200298,-0.05697900092313082,0.018557918926780454,0.003262176111868867,0.9563926200272571,-0.0007162556828463952,0.008915069348484973,-0.0004720403200396777
-0.21932454944801882,0.3496914105126747,-0.17300724303929094,0.16444448448750196,0.03405254446735842,-0.09044480352051974,0.0190293595783615,0.009302494721285219,0.9589671126387739,-0.0008892629258856861,0.008695744799036956,-0.00012234890952700302
-0.3326764008117362,0.3013761866282987,0.027824278663972014,0.14476872224463208,0.07271083772160525,-0.09067209200572086,0.01349553355960268,0.007147081463627764,0.9701925056368711,-0.0008614386472217141,0.008363068398225218,0.0001790272771012957
-0.3031321203709132,0.5095286865635935,0.13454121431696098,0.23680605139490277,0.018422714610112714,-0.1327935984027593,0.01462858019461705,0.01267651623378878,0.9608696253547864,-0.0007268974329047531,0.008059936277854306,0.0006885559636648893
-0.3808965253356364,0.44483952150279993,0.21453734248846384,0.2500184502934611,0.08374290760010662,-0.08363008465576839,0.009726206070331124,0.025473118607244594,0.9644520203089789,-0.0005123600904162893,0.00767903975251867,0.0011333954851676894
-0.5130997206556506,0.4490276194930115,0.21943920499726127,0.2392778780050266,0.08850072472159709,-0.03729344480659206,0.018218267780337857,0.02128403563697152,0.9713969847468995,-0.00029292088541902803,0.007165940031863019,0.0015824231046607008
-0.5876300152003507,0.4041905729189683,0.27033493502318073,0.2509455578440613,0.06363640914617877,-0.03765750246382218,0.01852113984422308,0.011595901408973033,0.9593049960798952,-2.258595039584727e-05,0.006578310016662668,0.0019866136775796694
-0.574552240171266,0.35030994058121995,0.4556956290188633,0.21679269643271804,-0.030313063032589682,0.03705161400446705,0.0073631834438173255,0.022703628558684633,0.9594499391003856,0.00043310967862301606,0.006003757776491403,0.0023369236181608895
-0.5130019495259912,0.35321861385886855,0.34857311021307646,0.19267013176630232,0.02559531984183626,0.0109849018672762,0.0074877263632543364,0.020094835980929177,0.9523553676694659,0.0007816827888360925,0.005490755826965411,0.002690142232019758
-0.5234299878491622,0.30119725133410924,0.33645648286113344,0.18988192942683468,-0.017372844850190583,0.08014545845719344,0.010470076429930274,0.01058512935955595,0.9700472596834889,0.001118139271697226,0.0049673258391162494,0.0029913394833538673
-0.5340049798944797,0.1360642523511322,0.3110052350100247,0.23870427616225015,0.003625042187533102,0.04091720494465354,0.019606341718581825,0.014850109007666768,0.9602371714400516,0.0014291445067072506,0.00443332085922177,0.0031274037357049995
-0.5495979184619093,0.0313062274320282,0.32447954155054326,0.1396939968741234,0.04771866122257735,0.06586410657829143,0.024146720788554912,0.01919724143998115,0.9587848180149215,0.0017536240482577939,0.0038837229407598602,0.0031587099631370276
-0.5284476587663107,0.036253536038108866,0.15040668190202042,0.16957371603952637,-0.035629507020268396,0.08104148032046489,0.017989000197875332,0.014206146292999969,0.9631337252175554,0.0019040307301598143,0.0033552752819935496,0.003194963499175137
-0.5836336721943745,0.00887388514716803,0.3520187495016426,0.15548210672537247,-0.06432916580346466,0.09184090817939351,0.013450080115108558,0.015727192888811494,0.9500432234421842,0.002256049479661457,0.0027716416097991747,0.003203837384322304
-0.428976060692965,0.030657206299055106,0.191623617191933,0.09221873387039312,-0.0680463019944866,0.09641707923136601,0.005325843306963509,0.018612245357866132,0.955574080850829,0.00244767309685339,0.0023426655491062096,0.00323449459062136
-0.35282509723667177,-0.061556165783002936,0.06565835352732935,-0.006660889709462705,-0.0816974550922085,0.10113021313339607,0.019672068952476574,0.02002540555168634,0.963310782133409,0.0025133314503807194,0.001989840451869538,0.0031729384248383573
-0.4836043501297113,-0.02982760977788876,0.04510033385091493,0.06784574396789322,-0.1057709869827498,0.0973378956128889,0.015929059423747182,0.016145622820289876,0.9683036456306243,0.0025584317842316344,0.0015062361017398266,0.003143110815060468
-0.2906878997661814,-0.20141336449764902,-0.030417242607838922,-0.02825306192194884,-0.10990207054980036,0.13510659905617414,0.01884073594725393,0.014647469406740086,0.96625899589472,0.002528014541623795,0.0012155482019736452,0.0029416974505628193
-0.17803487871947132,-0.3652390933447579,0.00268239919037426,-0.062259848707704436,-0.12751375792404296,0.03022585721234576,0.01424145408196715,0.01390199433091137,0.9501374741042998,0.002530696940814169,0.0010375133232541738,0.002576458357218061
-0.12066760542622669,-0.3474832785701266,-0.08512060681898274,-0.10588184921099227,-0.12444125385397574,0.01591280335834809,0.016340116710623215,0.030234767303084147,0.9704333164398857,0.002445576333995186,0.0009168457178279472,0.0022289750786479343
-0.10406512351159602,-0.30290592296179747,-0.19464155005330386,-0.0868921335091829,-0.17036304966682014,0.06680554602065751,0.023817123622474234,0.006710285311141087,0.9556913096529607,0.0022509347839418823,0.0008127805943163512,0.0019260691556861375
-0.07935948640041504,-0.2281292212091567,-0.11063800106503809,-0.0793677068940821,-0.07892281720451724,0.03825075029633038,0.02219508829961752,0.023868872585285236,0.9573483681502963,0.0021402967828768444,0.0007334211079159361,0.0016979399344769803
0.20980299873882136,-0.29157917553572243,-0.33535254424658556,-0.10394885219269838,-0.09612001215257195,-0.03585166683317271,0.022075364450614914,0.017074428126169425,0.9599661115499358,0.0018049442386302587,0.0009432241066547574,0.0014063607589412579
0.19980310093689513,-0.23990100300209857,-0.18570994645327735,-0.11993047129804488,-0.058622380081594296,-0.0394217450250004,0.0030444512305886975,0.018688921433755827,0.9579238214942482,0.0016192342921769812,0.0011430272075916524,0.0011664597559391595
0.2610092878913865,-0.1563624592598155,-0.22918325053048194,-0.10422505375922045,-0.10522595919960945,-0.08257220802415582,0.018160486118772728,0.020332708669437247,0.9636056158287288,0.0013900510416464994,0.0014040364954830391,0.0010100972966793438
0.31139552570366114,-0.1638056904173389,-0.109429352618235,-0.1250169780014584,-0.09863776495405507,-0.12547081303895044,0.01714630570658047,0.02264944305381064,0.9586457242521905,0.0012806216890282641,0.0017154320211867004,0.0008462916062620049
0.48561987553446984,-0.11726020659459016,-0.22764884296773777,-0.07974893346520937,-0.0814392466600612,-0.09413902423425777,0.023005256689891018,0.015833091935082956,0.9652141537517326,0.0010529728460605267,0.00220105189672117,0.0007290313996674148
0.6434624180726732,0.0007553684294188262,-0.10615725195413805,-0.028928945873715084,-0.09185694734514033,-0.12698670784919214,0.016113478631640796,0.02224796311759942,0.9637594977092466,0.0009468155941063886,0.002844514314793843,0.0007297867680968336
0.5844090849198231,-0.14679308867925814,0.11633304671547334,-0.02696848746037739,-0.10416666225353632,-0.12152138472780587,0.014985582345204869,0.028608914667558924,0.9630607400887109,0.0010631486408218618,0.003428923399713666,0.0005829936794175756
0.42775801026863663,0.12071950418031033,0.034373602811280046,0.01130809723821219,-0.015118926557495482,-0.13705727614462904,0.025680334374770842,0.013057290770446539,0.9625000424269333,0.0010975222436331417,0.003856681409982303,0.0007037131835978859
0.5619754900573309,0.16858506478781887,0.055216444763410935,-0.0326632035043211,-0.020670795028820695,-0.03426997643976431,0.01978462018557972,0.0286742463764773,0.9666794527760849,0.0011527386883965526,0.004418656900039633,0.0008722982483857048
0.5555520432788924,0.19667010754128572,0.07474135721522976,0.06395886123851756,-0.018950129867198837,-0.10297387251584962,0.01374951662002988,0.014044881947298934,0.9600606211556258,0.0012274800456117826,0.004974208943318526,0.0010689683559269906
0.472282747539671,0.30820732739259377,0.17198186330823415,0.053160698768012646,-0.0008679105931860016,-0.0973698920225686,0.011050812224587293,0.00709987828778335,0.964004317513451,0.0013994619089200168,0.0054464916908581965,0.0013771756833195845
0.5570980645892192,0.31212367305336197,0.10146234138223754,0.09530494126209435,0.01661955654755973,-0.05264373836446729,0.01987528053167648,0.012449894177468683,0.9521813638102209,0.0015009242503022542,0.006003589755447417,0.0016892993563729466
0.6431877178178826,0.3295142498411216,0.19615257518032703,0.10917262187823792,0.06072146454839036,-0.08656848540656648,0.016635836681120134,0.02501545764847798,0.9618311971683564,0.0016970768254825812,0.006646777473265299,0.002018813606214068
0.5301924144045385,0.2319120556842142,0.12978896857200733,0.139146469700439,0.03216175444887949,-0.014911361799017859,0.018271625257016432,0.02122912862518053,0.9683235645735461,0.0018268657940545886,0.007176969887669838,0.002250725661898282
0.47093448169037,0.2639485314157332,0.1695920503765388,0.14824843743378308,0.0339240985615574,-0.02552860229932489,0.017386825006468758,0.027131872051242935,0.9631764881200453,0.001996457844431127,0.007647904369360208,0.0025146741933140156
0.3619018973355374,0.19544833326718963,0.23745625358169414,0.13227046107185797,0.06987432643253177,-0.0014835185415750796,0.01839320016997965,0.025026865648670384,0.9502806018729761,0.0022339140980128214,0.008009806266695745,0.002710122526581205
0.27777394779885234,0.29771397997659865,0.18603200220294192,0.16539540681461073,0.08668388742962033,0.05843858446777725,0.024311262594075102,0.020918303544668834,0.9591782452265157,0.0024199461002157633,0.008287580214494597,0.0030078365065578042
0.2547544284163152,0.14328443259850634,0.08440725986298106,0.16879077625036146,0.08730078761563462,0.04008919129901906,0.01337401089163219,0.0270784006249646,0.9662136918426455,0.002504353360078744,0.008542334642910912,0.0031511209391563103
0.25306293247141565,0.187043781504191,0.043312567980629206,0.1383153852048756,0.06075781136245678,0.09447245169737223,0.01771837431942742,0.020584420620550554,0.9591590760827667,0.0025476659280593734,0.008795397575382329,0.003338164720660501
0.11702666446380003,0.033456490108661696,-0.03881148786789541,0.12261971852614244,0.053624379036477196,0.0768477753771435,0.019447162652298053,0.02167207471959474,0.9630636761623155,0.0025088544401914784,0.00891242423984613,0.003371621210769163
0.05328430269926986,-0.04849740798500858,-0.14325483773338693,0.05182249508018551,0.10823921058691811,0.18624611254217327,0.022260788468673947,0.016616105762075055,0.9645574601270697,0.002365599602458091,0.008965708542545399,0.003323123802784154
-0.012326793230912382,0.018677165444014432,-0.2817541909231541,0.025314057905681323,0.09080788450314346,0.18325537271017045,0.023343815165776143,0.01905183006326452,0.9652566747179222,0.0020838454115349367,0.008953381749314487,0.0033418009682281685
-0.022925867422713596,-0.07271040129251405,-0.15297410422902055,0.09076643788833402,0.08140480274244025,0.12322186440689618,0.01569410997023791,0.01879210157495014,0.9582701152159911,0.0019308713073059166,0.008930455881891772,0.0032690905669356543
-0.2032051683972684,-0.10633612089385017,-0.1300164242698642,-0.04604410387459689,0.11086797832096301,0.11961910610296587,0.01756519672601462,0.015181581210921188,0.9555497056879857,0.0018008548830360524,0.008727250713494504,0.003162754446041804
-0.2095954870036859,-0.3466186103698117,-0.33025841096245795,-0.04737457945859386,0.043786612785088795,0.2053945997861708,0.024386758842947304,0.013353731838743636,0.9597386595258659,0.0014705964720735942,0.008517655226490818,0.0028161358356719925
-0.2541489390396735,-0.4042484475658973,-0.32564525306974323,-0.07342945168321668,0.060793221797013436,0.07028796083527998,0.027116995764650643,0.019957743145494627,0.9500017474769537,0.001144951219003851,0.008263506287451145,0.002411887388106095
-0.3162584057363127,-0.4807912762973024,-0.2750492091349765,-0.14426498433102744,0.058895629519672754,0.20329716935694625,0.015747281591490716,0.027883110578049576,0.9612040916520704,0.0008699020098688744,0.007947247881714832,0.0019310961118087927
-0.33606019721722796,-0.39010823165981384,-0.3136530244781346,-0.17184859639220848,0.028918922243265734,0.12853297046571274,0.01472717373322999,0.022887928371700575,0.9586259285975455,0.0005562489853907398,0.007611187684497605,0.0015409878801489786
-0.3660496373831233,-0.4469580490625095,-0.32524408124029236,-0.1578678384613698,0.004745226857346065,0.10639657537612401,0.016096023291451912,0.015419050623211092,0.9611540828680007,0.00023100490415044737,0.0072451380471144815,0.0010940298310864692
-0.30110295024841044,-0.4593919199514591,-0.25769089790963245,-0.13649839155704344,-0.015524806159283283,0.07330923106786247,0.02295710975454951,0.022987257564235076,0.9649693769824649,-2.668599375918507e-05,0.006944035096866071,0.0006346379111350101
-0.39933306399977053,-0.3996369853635437,-0.2074060830925573,-0.24724686294986348,-0.020599883994399295,0.05483491996701205,0.017886276826520667,0.014640091016141641,0.954923087179766,-0.00023409207685174237,0.006544702032866299,0.00023500092577146632
-0.353093834410097,-0.46187169255594984,-0.1650339181867066,-0.26191996964339986,-0.059662002962884354,0.05928192378297558,0.02642025036226876,0.025339847318026788,0.9642910741397215,-0.00039912599503844895,0.006191608198456203,-0.00022687076678448357
-0.44205876183531245,-0.49869105435685956,-0.23282749497138905,-0.26218560567835625,-0.034694849138078354,-0.012938064387656606,0.022326088074235327,0.022205049973372828,0.9534796559962038,-0.000631953490009838,0.005749549436620891,-0.0007255618211413431
-0.34787055723162164,-0.44514811471852944,0.052905726673726346,-0.1985196116743161,-0.014265153608591498,-0.007660552017112075,0.02458572955905736,0.024951810177756748,0.9694823903719142,-0.0005790477633361117,0.00540167887938927,-0.0011707099358598727
-0.145297372885058,-0.3544309722637312,-0.1214747205216462,-0.19356650933788228,-0.10318332285625294,-0.006554131848969151,0.019929129195392217,0.029314673060490685,0.965964648943876,-0.0007005224838577579,0.005256381506504211,-0.0015251409081236038
-0.23519089313963032,-0.20568173440949686,0.010330934084064061,-0.2146776742399059,-0.010561777348952686,-0.08083214863263834,0.010864824445300625,0.026935406299363595,0.9647040760166156,-0.0006901915497736938,0.005021190613364581,-0.0017308226425331006
0.08265379466077927,-0.12170667053104361,0.18596841703021016,-0.15256070137548122,-0.14107236520751726,-0.05388521435536305,0.010664876007426174,0.02447140287262807,0.9551371284224411,-0.0005042231327434837,0.005103844408025361,-0.0018525293130641444
-0.15054267721080533,0.008575293158693847,0.1875746228269107,-0.06128976796980237,-0.07328893760969245,-0.09223747797509854,0.021501943627181594,0.02639666132815281,0.9582888172465893,-0.00031664850991657294,0.004953301730814555,-0.0018439540199054506
0.058571322272928494,-0.05511146128980148,0.12882019284828397,-0.07241662441116352,-0.05726687501142667,-0.036031103051168606,0.02361145926618722,0.019625627337911115,0.963026828978255,-0.00018782831706828893,0.005011873053087485,-0.001899065481195252
0.03140418716369493,0.05172607023884196,0.3571347105140187,-0.08855974349708508,-0.11017968066424777,-0.1092409269280233,0.01693766423095215,0.032178032141448945,0.956320119015385,0.00016930639344572978,0.005043277240251179,-0.0018473394109564099
0.05152860688460739,0.19105812350664741,0.29130207773595557,0.026815956417898232,-0.07924767343766197,-0.032883295426622765,0.014153010344216265,0.023221390153176084,0.9613803043039895,0.0004606084711816854,0.005094805847135787,-0.0016562812874497627
0.14783859186955828,0.19916325729957055,0.3294231131279229,0.10251800754940443,-0.09426976600770835,-0.07208677880119287,0.013998116770432206,0.023537252784936524,0.951120777014347,0.0007900315843096083,0.0052426444390053445,-0.001457118030150192
0.27079112857033344,0.2918477067473412,0.32746947818345257,0.07523370500497649,-0.05587595999885039,-0.025229619206907694,0.016349228325311868,0.03347086239134936,0.9572280488579453,0.0011175010624930608,0.005513435567575678,-0.0011652703234028507
0.27744474070692776,0.36626662904030427,0.3271453118907624,0.21425201047685125,-0.011424174480017613,-0.0744724081686196,0.020553982892425892,0.02352645569041201,0.961669233347316,0.0014446463743838234,0.005790880308282606,-0.0007990036943625466
0.30111881585336625,0.5049770492411609,0.2541543631475227,0.13361304169327665,0.020677322637074117,-0.044448991772786405,0.012324251786535168,0.025568455525718452,0.9625084170720842,0.0016988007375313462,0.006091999124135971,-0.00029402664512138553
0.20089804626557156,0.46874133713075056,0.1366188559661108,0.18217214370927906,-0.023684379142094036,-0.01128601619384229,0.006536581825728721,0.029439142544448745,0.9514169504433079,0.0018354195934974567,0.006292897170401543,0.00017471469200936503
0.2136527628737377,0.39056784151499485,0.19087655025752437,0.2174773645607836,0.0609798215949955,-0.011446620010562252,0.010347926684024391,0.029382055062267938,0.9501100532448739,0.0020262961437549814,0.006506549933275281,0.0005652825335243599
0.3962891679899868,0.5159315862853947,0.14300735782845683,0.17035731491185716,-0.02628773471185758,-0.005165437529008244,0.013440313699720239,0.030215498144271942,0.9579242648702267,0.0021693035015834384,0.006902839101265268,0.0010812141198097546
0.2039405816132493,0.3976117346662175,-0.13491864433436732,0.22450242340913354,0.059746197521225196,0.10104739150889828,0.025842250210123534,0.022287242032731712,0.9572100241222194,0.0020343848572490705,0.007106779682878517,0.0014788258544759722
0.3420265680835239,0.45009098460338903,-0.03951511081037641,0.2533606476778481,0.02961795062878851,0.10745461266741264,0.017940060142424934,0.021920597910384372,0.9597177527919077,0.0019948697464386945,0.007448806250962042,0.0019289168390793613
0.2867691967603018,0.3789861551305112,-0.1733985236247091,0.21822857713571775,0.02726871522642494,0.03415561322013063,0.011536642790758046,0.02694809217736518,0.9546300695404227,0.0018214712228139852,0.007735575447722343,0.0023079029942098725
0.30624344251345126,0.2057008996959288,0.02738059734548398,0.264372746668503,0.06845093010372866,0.0583033922349728,0.02132229789286075,0.0269427156455641,0.9654707434103619,0.0018488518201594693,0.008041818890235794,0.0025136038939058015
0.3027662214362213,0.2587019208475818,-0.1825224028325552,0.23074204038532498,0.08196890714262502,0.1606170801534707,0.016536147357470717,0.028905061824653064,0.961285226267091,0.0016663294173269137,0.008344585111672015,0.0027723058147533833
0.1698920268333028,0.20977682901304423,-0.1527244280522005,0.1365648464860398,0.09922701417366342,0.07088558629244199,0.023599611796262195,0.025216562748301925,0.9655880928958694,0.0015136049892747134,0.008514477138505316,0.002982082643766428
0.11040833599356482,-0.05693809462132031,-0.0732736456885376,0.18483749176066502,0.0830515881119578,0.094084764701749,0.023388596794810257,0.029657405326553577,0.9599048916792523,0.0014403313435861758,0.008624885474498882,0.002925144549145107
0.11637902118185076,0.05455786054082443,-0.0887611600738089,0.14758886843171104,0.048329920211162,0.06112029216015419,0.019057611890723226,0.027217438428802216,0.9579775626070647,0.0013515701835123668,0.008741264495680733,0.0029797024096859318
0.06552011683751632,0.06111952114107669,-0.22847268944134275,0.08677326278158237,0.06902159101264323,0.01563324893128483,0.011225353343710453,0.031112164376859937,0.961581124410431,0.0011230974940710243,0.00880678461251825,0.0030408219308270083
0.021898629069060933,-0.08082987478897195,-0.15858321466455272,0.05170605221279413,0.026619403621363197,0.02463526437532306,0.018654788270196666,0.025245533626820915,0.9652961944859089,0.0009645142794064715,0.00882868324158731,0.0029599920560380365
-0.09686693604678127,-0.17570736833083817,-0.12641499421493735,0.06232468429390599,0.039113792890914344,0.0398246097058202,0.0177109063119953,0.031227966653318368,0.9568859205295625,0.0008380992851915342,0.008731816305540529,0.002784284687707198
-0.20895470970567157,-0.1674263653606103,-0.1640338312225372,-0.0745165317173206,-0.01749363653181791,-0.03380151899381609,0.012290725301556022,0.025800584494059593,0.9593896734299122,0.0006740654539689969,0.008522861595834857,0.0026168583223465875
-0.20749622451048916,-0.15542334030606736,0.012962204424356694,-0.01223385308829986,-0.07539954954811214,-0.05620182019469073,0.02499946902402274,0.032720012513703024,0.9565955330254771,0.0006870276583933536,0.008315365371324367,0.0024614349820405203
-0.30186112737807963,-0.16839547173867633,0.023067204916243988,-0.0424923139878943,0.035584273620543026,-0.01941202481856303,0.01845866799379058,0.03744867074856691,0.9513263026760314,0.0007100948633095976,0.008013504243946286,0.002293039510301844
-0.3869870004393573,-0.22988208434570762,0.07007238393735568,-0.0520767048781429,0.0011089083318806727,-0.10662577077859849,0.025040150148336195,0.03133646610280617,0.9746391243215035,0.0007801672472469534,0.007626517243506929,0.002063157425956136
-0.528018412328682,-0.2985183079457504,-0.053497433308275485,-0.09541306013264293,-0.037870141150331785,-0.10859507647834749,0.0181800701933652,0.023472601596136497,0.9656862619555296,0.0007266698139386778,0.007098498831178248,0.0017646391180103857
-0.42386738302952104,-0.3317203905797329,0.1988099588465477,-0.07331628473833934,0.007376555123663472,-0.1257918016530448,0.024705332469423223,0.027424389367201044,0.9597562232814865,0.0009254797727852255,0.006674631448148726,0.001432918727430653
-0.5711335011221182,-0.1786992186744731,0.15810252234049774,-0.12944556317686468,-0.021296528500817216,-0.13565306922319845,0.02213062835913353,0.028514609012472852,0.9610099956307513,0.0010835822951257234,0.006103497947026608,0.00125421950875618
-0.4525834570622225,-0.23869390150419517,0.15191182652935376,-0.08888461576144703,-0.07775603588063468,-0.15836387853852024,0.01852437625159144,0.03416864956363491,0.957119141404235,0.001235494121655077,0.005650914489964385,0.0010155256072519848
-0.48391062427384485,-0.22615313847495955,0.24406102161014026,-0.10586203093586988,-0.1400792013921555,-0.060453656967586124,0.021524656126837124,0.020005807172593842,0.9560669438575774,0.0014795551432652172,0.00516700386569054,0.0007893724687770252
-0.49303223824191245,-0.23509948535928898,0.2751401662488924,-0.1176430750408523,-0.12118423703503281,-0.10900451444961363,0.025252369794024385,0.027571684738633265,0.9597907976299047,0.0017546953095141098,0.004673971627448628,0.0005542729834177362
-0.48956113105424437,-0.19065703938643458,0.030655970830588755,-0.07564812783563568,-0.08820712189250403,-0.06269248886493832,0.017769674674836703,0.022935816037154232,0.9525692354343522,0.001785351280344698,0.0041844104963943834,0.00036361594403130167
-0.6282979612252346,0.05024174361923563,0.1285940841031599,-0.06299920306784261,-0.15072989706875164,-0.1381606364408403,0.019424464978449078,0.023820431099454926,0.9586723243014001,0.0019139453644478584,0.0035561125351691487,0.00041385768765053727
-0.5033823239522,0.03177508102867385,0.11197643518000731,0.015953356407238658,-0.14974674827465062,-0.0696183333528019,0.017070058879527658,0.029387473057389816,0.9593874505279706,0.0020259217996278656,0.003052730211216949,0.00044563276867921105
-0.5263862541997533,0.1423454891523694,0.008962764660417791,0.026779641763711448,-0.10697185923728632,-0.02424061638352283,0.015150710689307498,0.03241890223237676,0.9567268698521681,0.0020348845642882835,0.0025263439570171954,0.0005879782578315805
-0.431081874433245,0.24366962907575748,-0.009993026649545537,-0.0068289432394155105,-0.11186627817216047,-0.04847543063747973,0.02465796400985194,0.027385632562406087,0.9508558745103198,0.0020248915376387382,0.00209526208258395,0.000831647886907338
-0.36427231576859626,0.2721442495293649,-0.12480521040617457,0.0558947943593278,-0.08161123669128159,0.009180613149129824,0.02493598622999914,0.019732569985897203,0.9690090770844414,0.0019000863272325638,0.001730989766815354,0.0011037921364367028
-0.25400966772358247,0.06467699592327145,-0.2226557940736657,0.05735519714076182,-0.05203151197524844,0.0444614340056781,0.025684551267633214,0.037814230638875054,0.9616000975563395,0.0016774305331588978,0.0014769800990917714,0.0011684691323599742
-0.24847261869346596,0.1673880792626934,-0.07832418715892747,0.07431216811105212,-0.05270153330319564,0.09048230432848113,0.021112306643848514,0.030857249521640567,0.9554670200405206,0.0015991063459999705,0.0012285074803983055,0.0013358572116226675
-0.054079682694985295,0.25738922199666403,-0.265579281964232,0.13152275329449162,-0.09349371179159797,0.1023791331712321,0.02078358149401239,0.03158198684328547,0.9629547485376974,0.0013335270640357385,0.0011744277977033203,0.0015932464336193318
-0.21154730947977896,0.31420961585594265,-0.32912650845238967,0.15264377387806127,-0.005028085889319763,0.15230384380674356,0.017544531240713673,0.03275841384682921,0.959969335534782,0.0010044005555833488,0.0009628804882235413,0.0019074560494752744
-0.13572538680865215,0.2859882946249998,-0.3781792927147076,0.19107598300286147,-0.03075954322303192,0.15695707029427314,0.016584063091542724,0.026012263383106846,0.9658676736756431,0.0006262212628686411,0.0008271551014148891,0.002193444344100274
0.049518112851782065,0.3610320390875016,-0.375614853353389,0.13976511550031662,-0.01866364021725607,0.08456586147749415,0.024826040899665384,0.035886528525077524,0.957273934027567,0.00025060640951525196,0.0008766732142666712,0.0025544763831877757
0.10123470095177596,0.2308837933767383,-0.14797654540920505,0.17683915691062727,0.030897915397059942,0.2031242389154817,0.023885072999437252,0.03101713422272972,0.9571516185743794,0.00010262986410604694,0.0009779079152184471,0.002785360176564514
0.3379894811757829,0.12034821777192087,-0.30603331587142146,0.16147390188357977,-0.03143161551659071,0.13803951939124803,0.008246079065441593,0.029289585751264776,0.9668007237039079,-0.00020340345176537452,0.00131589739639423,0.002905708394336435
0.2956412922319715,0.059048409231008674,-0.30231460007883876,0.13109635124109079,0.0689143212729817,0.1617234852135132,0.018294898949025824,0.034401378809515194,0.9616912073512064,-0.0005057180518442133,0.0016115386886262015,0.0029647568035674437
0.41722956134718275,-0.03680019584554485,-0.14315698775346572,0.09528822916224003,0.021963662285277755,0.14506440510828303,0.014306502575736978,0.030651827983690493,0.9646789207148715,-0.000648875039597679,0.0020287682499733842,0.0029279566077218986
0.40616306566749205,-0.0027332536005979305,-0.23025279094210105,0.03794722960620352,0.08171049352647496,0.13360476414489003,0.009993986312488596,0.02452957944230827,0.96742302428446,-0.0008791278305397801,0.0024349313156408763,0.002925223354121301
0.450517160541217,-0.1254812875348586,-0.035049974202719485,0.10426295459419106,0.07429056581642887,0.11773356901048664,0.01954679127096866,0.029128099574989262,0.9725985288737007,-0.0009141778047424996,0.0028854484761820934,0.002799742066586442
0.48830257940740596,-0.30453119915599647,0.12667970087714409,0.022677575128411086,0.08125935810288185,0.09266685805982489,0.02606056733109259,0.04253946553516717,0.9588682116334064,-0.0007874981038653554,0.0033737510555894995,0.0024952108674304455
0.4916526622199697,-0.18868988852728338,0.028938538205171192,0.007598498179502963,0.09973932816599937,0.09941642340518882,0.020199361220967715,0.03279218028653768,0.9704627795796659,-0.0007585595656601843,0.003865403717809469,0.0023065209789031624
0.5716725163832181,-0.29217438280319746,0.17989257561652722,-0.057764745881397,0.05272868387024386,0.01748274407478738,0.018932582039610037,0.031874195776422906,0.9595592935254383,-0.000578666990043657,0.004437076234192687,0.0020143465960999647
0.5315810945750516,-0.32252644196995006,0.3347557472017791,-0.08347058273893464,0.08967421083568052,0.00035338086078617707,0.021322438251872508,0.034983857572287766,0.9618806437580854,-0.00024391124284187788,0.004968657328767739,0.0016918201541300149
0.4590303250667104,-0.4688681207003843,0.3023863368797001,-0.12973318627984898,0.09089451597140982,0.010246096857884973,0.02210599034348345,0.03414092980262025,0.9698141425731641,5.847509403782226e-05,0.00542768765383445,0.0012229520334296306
0.45081875265460686,-0.30798649530173156,0.21419426292252458,-0.18000990952411594,0.04235701936612024,-0.0647489695455724,0.026242853951462457,0.02755990481124834,0.9639485489277453,0.0002726693569603468,0.005878506406489056,0.0009149655381278989
0.4595244514417005,-0.4850571307437215,0.2662769190557184,-0.17347727403051283,0.08118525690697692,0.01925229981274413,0.015641668399588023,0.03257611516151472,0.9576230698121162,0.0005389462760160653,0.006338030857930757,0.0004299084073841775
0.545260604934057,-0.34132261721212753,0.2900091105376988,-0.19238662487380725,0.07435167797681703,-0.07051926650227748,0.021686757477510657,0.028025417943812417,0.9600573834344018,0.000828955386553764,0.006883291462864815,8.858579017204994e-05
0.41337734342705085,-0.4113032338661497,0.286607225114135,-0.24339283521470303,0.1090683820085951,-0.028836643946757216,0.0180967269537363,0.04056237067226508,0.9574709677633136,0.001115562611667899,0.007296668806291866,-0.00032271744369409983
0.42789386653881767,-0.42296166244208194,0.2167226005293148,-0.1680935839604219,0.0658745912254391,-0.08360846025485921,0.013591677286887847,0.03447738250406567,0.9612001496921079,0.0013322852121972137,0.0077245626728306835,-0.0007456791061361818
0.2906113329129389,-0.24046530838113817,0.2411970397346266,-0.26251540700850495,0.05801933347956189,-0.10843261057030916,0.02082604003485383,0.03452413015363494,0.9587192231358199,0.0015734822519318404,0.008015174005743623,-0.00098614441451732
0.226945748354179,-0.2995473712037428,0.21575571119188516,-0.18792501620491248,0.07321240507209051,-0.07200836880091138,0.017190368913373708,0.03388086638154736,0.9517277556481013,0.0017892379631237255,0.008242119754097802,-0.001285691785721063
0.2315330042579978,-0.23895396909530367,0.1458626546474496,-0.1603860441611042,0.017857278655047146,-0.053042001760315156,0.02766320803341074,0.029617721773831665,0.9570769808416392,0.0019351006177711749,0.008473652758355798,-0.0015246457548163666
0.0005255596176987343,-0.204620399450698,0.19196451405018064,-0.16679518903756974,-0.011311875483804044,-0.06675859410951594,0.02009577858596074,0.04372058451393432,0.9554308989114977,0.0021270651318213555,0.008474178317973499,-0.0017292661542670645
-0.01577182486116565,-0.26720445723706926,0.10018161023298042,-0.13237704057924807,-0.006758700702899788,-0.11808876897841948,0.017094649519040404,0.034695782592274294,0.9517549425154354,0.002227246742054336,0.008458406493112334,-0.0019964706115041335
-0.20765362888097375,0.034091316962988324,0.06183115026706886,-0.08613019117048945,-0.03020069155171161,-0.026481269451884948,0.026359524049852166,0.029748493004145463,0.9498112362899743,0.0022890778923214047,0.008250752864231358,-0.0019623792945411456
-0.1594496648084749,0.030679881172193522,-0.029882834166207344,0.022333542672016968,-0.050114545369893994,-0.004740037701205112,0.029984804365974088,0.03190524404729103,0.9659354482182473,0.0022591950581551975,0.008091303199422884,-0.001931699413368952
-0.1274548466908097,0.10957158507039091,-0.09645775947792753,-0.02270453015489568,-0.037264819971572105,-0.014839175227996554,0.024744906889357675,0.036663491338980114,0.9517737854533155,0.0021627372986772696,0.007963848352732074,-0.0018221278282985608
-0.19121813953467118,0.13910339314329295,-0.07358891945898874,0.003606898906964367,-0.049020879423445456,0.08484020674626107,0.0199092637637453,0.0366388199660909,0.9630259884562339,0.0020891483792182803,0.007772630213197403,-0.0016830244351552681
-0.14884856236947056,0.235276493730311,-0.20607768914131833,0.06107875354942273,-0.08119908635856064,0.06405559306825205,0.014054932762822601,0.032873816717929646,0.9562171564911176,0.0018830706900769623,0.007623781650827933,-0.001447747941424957
-0.3102187107667529,0.26199613468857974,-0.23984736719062646,0.0817560307455675,0.0023913567825368503,0.10839520041810236,0.021819821950518455,0.03098817666215107,0.9577049384251743,0.0016432233228863358,0.007313562940061179,-0.001185751806736377
-0.22457229629443703,0.45237537376489295,-0.10826284810502507,0.06211245307479252,-0.0585227465987963,0.11185559530923149,0.020059086106761867,0.03482169205610476,0.961616372535673,0.0015349604747813108,0.007088990643766742,-0.0007333764329714841
-0.31495172670282295,0.30997049872857746,-0.22416417140164213,0.1377575577297835,-0.060499105822781764,0.06634524081427304,0.027947593580567694,0.030084704746645333,0.9669364287504041,0.0013107963033796683,0.00677403891706392,-0.00042340593424290663
-0.3916734249746271,0.28965970473031993,-0.15800727888072813,0.20445909778290922,-0.047650762871103175,0.0628961717034715,0.030020461517810584,0.03040241831325105,0.9609113525043554,0.0011527890244989404,0.006382365492089293,-0.00013374622951258666
-0.4113446388873613,0.3517516966798335,-0.20020249499349216,0.26591311445071186,0.01602018122821175,0.07612228497824616,0.02509845242960057,0.030030564099875263,0.9521110152478232,0.0009525865295054481,0.005971020853201931,0.0002180054671672469
-0.2122977239437306,0.5227117164583309,-0.16087425898994806,0.23008471446440337,-0.08262714736496327,0.10896818993392732,0.022516421085491838,0.03065877828672372,0.963246507622746,0.0007917122705154999,0.005758723129258201,0.0007407171836255779
-0.2971485417475164,0.3397314447276158,-0.09089473814533264,0.22829426784067344,-0.10411027359990073,0.10246589993615011,0.020199366807464342,0.028835032619496163,0.9553900347477916,0.0007008175323701673,0.0054615745875106845,0.0010804486283531936
-0.3148229187294606,0.4431259330754692,-0.050123702085001345,0.22445554594942402,-0.012397673568695537,0.11529304102195694,0.02740583320366315,0.0308302634395377,0.9601364944798794,0.000650693830285166,0.005146751668781224,0.0015235745614286629
-0.27613871069244833,0.17236527000794205,0.024154924431327628,0.2741431917247059,0.012426868103200494,0.0542159439247889,0.008392364875985884,0.03122295338377654,0.9586273538095826,0.0006748487547164935,0.004870612958088775,0.001695939831436605
-0.07952860833414152,0.23633925910395556,0.11876982198316911,0.2575796433138921,-0.036528219343619356,0.03397232311181153,0.019764139305924296,0.03453689350339339,0.964555430325426,0.0007936185766996627,0.004791084349754634,0.0019322790905405606
-0.12048495493510739,0.20499907196101405,0.11844912966142976,0.14784560042148462,-0.02356114314589038,-0.02769913838813156,0.02200269981028226,0.03059360514217416,0.9680023965178699,0.0009120677063610924,0.004670599394819527,0.002137278162501574
-0.1445945798620385,0.07923541015038657,0.145044515806117,0.14196590902122808,-0.01686042845818178,-0.08078988387255623,0.014905748317796735,0.04406471999705917,0.9653633345664333,0.0010571122221672094,0.004526004814957489,0.0022165135726519613
-0.07528954910685727,0.0898834525028586,0.16205368150993488,0.11008331188955081,0.06785357731301832,-0.03645242038781857,0.014314509566936612,0.033029859426747674,0.9500798411803921,0.0012191659036771443,0.0044507152658506315,0.0023063970251548196
-0.022305672849740076,0.024973922477990868,0.1267782213928908,0.10595216759060251,0.04994782580367732,-0.1236078020787547,0.025549168385492572,0.025070932067285667,0.963000444276608,0.001345944125070035,0.004428409593000892,0.002331370947632811
0.09598241047174505,-0.12168540613414455,0.12363734496947601,0.04055252486917045,0.09708495065256295,-0.0727085702944841,0.01187896050589942,0.03553652300988427,0.9682693834921606,0.0014695814700395112,0.004524392003472637,0.002209685541498666
0.2575634489457188,-0.18222966744680436,0.0903930360425241,0.026853043328884097,0.031805100441050345,-0.08462723974684212,0.021820593184088345,0.03909804726269854,0.967479400420899,0.0015599745060820352,0.0047819554524183554,0.0020274558740518618
0.09503504149588184,-0.15005530649195958,0.18016847925092377,-0.02402899802741037,0.06838029481154347,-0.11575004141930582,0.017321560204372415,0.03266179720309231,0.9614336803348499,0.0017401429853329587,0.004876990493914237,0.0018774005675599023
0.23147606667625556,-0.10467940451462959,0.0848326525784441,-0.05855586637369026,0.08160736448429165,-0.14737924136807062,0.01613102203772194,0.03668646776609961,0.9530156267079237,0.0018249756379114031,0.005108466560590493,0.0017727211630452725
0.36588769831750917,-0.1705138587051307,0.10378552757752793,-0.0016092198078886556,0.06226973714557486,-0.151656327348253,0.01106879587605837,0.038614574671299,0.9656808403271581,0.001928761165488931,0.005474354258908002,0.001602207304340142
0.2973198785243744,-0.1843668466309012,0.06413295529651739,-0.1591137013355314,0.025160807817686454,-0.14406189867886524,0.018107432370335172,0.03984530385589327,0.9545019403659115,0.0019928941207854483,0.0057716741374323755,0.0014178404577092408
0.35994851407761413,-0.21116688504217385,-0.08454889337186292,-0.07619752296883087,0.11118979231386984,-0.07412555271782183,0.015584183022123582,0.03525168497515349,0.9658953302277682,0.0019083452274135855,0.006131622651509991,0.001206673572667067
0.35566282156131646,-0.20446413618822515,-0.06127321649277492,-0.12084733779431056,0.077735137874755,-0.09418184445276996,0.015155470397622009,0.03647387827138915,0.9680567185622385,0.0018470720109208104,0.006487285473071307,0.001002209436478842
0.20836188657029206,-0.27551539320425383,-0.2217239904885593,-0.11761543219824722,0.057279456769401466,-0.07336398393641004,0.01796395044031427,0.037343146960587596,0.9564181256423774,0.0016253480204322511,0.006695647359641599,0.0007266940432745882
0.3186200898264524,-0.2616207372099408,-0.15192128538539357,-0.1311642390117273,0.04056415510172297,-0.07139871925836566,0.022232045473258327,0.035475869009084546,0.9616684904490868,0.0014734267350468575,0.007014267449468051,0.0004650733060646473
0.24818390662178907,-0.10313142048198863,-0.2791784142863974,-0.0669984323446783,0.07030748351226894,-0.01009219364795247,0.020615709102951844,0.036902889989665434,0.9591347652906899,0.0011942483207604603,0.00726245135608984,0.0003619418855826587
0.35522413045008505,-0.16422889411480834,-0.38059347638136787,-0.08298440697838867,-0.0023232753074517486,-0.05799405226367096,0.022815359753317842,0.042236729523215326,0.9588825571627422,0.0008136548443790923,0.0076176754865399255,0.00019771299146785035
0.33793074510986043,-0.145292627392142,-0.37803412146567117,-0.07582817178996933,0.019471598692589607,-0.010604818382019423,0.020463164621681032,0.03904186898442064,0.9613763148971965,0.0004356207229134212,0.007955606231649785,5.2420364075708325e-05
0.2288133098508614,0.02166420242636779,-0.3966512290375122,-0.004150949643688718,-0.024557627137654837,0.04365496832590791,0.02643394982206517,0.02553273157957138,0.9531495443427445,3.8969493875908925e-05,0.008184419541500646,7.408456650207613e-05
0.19662872583812496,-0.02234473581029277,-0.3501691578026011,-0.05412463514960865,-0.11459063699427943,0.07953579122041725,0.011778064983753785,0.03330788270136915,0.9601937079155156,-0.0003111996639266922,0.008381048267338771,5.173983069178336e-05
0.04697957272990699,0.08939928628861624,-0.3080085262893692,-0.011206807868349038,-0.0822442631868748,0.11453446095855079,0.029646141206081625,0.031167019634837083,0.9572878145636963,-0.0006192081902160613,0.008428027840068677,0.0001411391169803996
0.11370339295256868,-0.014268023134177465,-0.07780866402249526,0.01676145546433806,-0.07062733799620104,0.095198459819846,0.020870534076195234,0.03658014948722494,0.9583552136239551,-0.0006970168542385567,0.008541731233021248,0.00012687109384622213
-0.007767603204553761,0.21478015785103066,-0.1489076313542689,0.0036850163884965797,-0.08120728698321916,0.09928146486859947,0.024115903711905903,0.03660611515223317,0.9633158980278143,-0.0008459244855928256,0.008533963629816694,0.00034165125169725283
-0.1747431532751288,0.11660193391351964,-0.29545739883461364,0.08852179469076818,-0.12362244417043211,0.11424774289973413,0.020636633130176506,0.031237098788917936,0.9639069353177633,-0.0011413818844274394,0.008359220476541564,0.00045825318561077246
-0.3158586141690628,0.26257506953229137,-0.06918110579979861,0.11308619632037287,-0.10575124221790526,0.16095870863571085,0.01618792793592755,0.04044903437959984,0.9695617510814735,-0.001210562990227238,0.008043361862372502,0.0007208282551430639
-0.170635328564959,0.24990590212419755,-0.025993366182354333,0.14487781841018899,-0.09583394485627827,0.1318981953276839,0.01719339100355577,0.047403455354928535,0.954705030476761,-0.0012365563564095924,0.007872726533807542,0.0009707341572672614
-0.4023721957757799,0.4269796128616462,0.15788109065381778,0.1574485394657613,-0.057275313261776734,0.1159295968359135,0.02475249690479394,0.03643876760553247,0.9593221648374517,-0.0010786752657557747,0.0074703543380317625,0.0013977137701289078
-0.34364072937633006,0.2590924873160243,0.0755514215039749,0.1339622721439258,-0.12738032801042823,0.1141588916952599,0.018720234866443797,0.03506437159249155,0.9638704845679839,-0.0010031238442517996,0.007126713608655433,0.001656806257444932
-0.37590898686842583,0.27159726814897955,0.14982750531248173,0.1465375406889146,-0.1257236487694807,0.15548772180048448,0.024748893930873126,0.03672704847727501,0.958953047456806,-0.0008532963389393179,0.0067508046217870064,0.0019284035255939117
-0.5432967292215569,0.23849735252524804,0.17609661799770918,0.13420157722701356,-0.13184377688303894,0.09097610287160374,0.018356346314354875,0.03559512833039936,0.9533965322180092,-0.0006771997209416087,0.00620750789256545,0.0021669008781191597
-0.37945389267616914,0.11803239956813814,0.27616774204061134,0.20006305141882616,-0.07347911731349735,0.14815959070239543,0.022883305628746672,0.03773460260561263,0.9606126281395425,-0.0004010319789009973,0.0058280539998892805,0.0022849332776872975
-0.5902876952476908,0.18308973942210333,0.36069406002932186,0.11282353103057406,-0.050206772713744074,0.11669869332585762,0.016445995203338233,0.03279549708824516,0.9584147834765931,-4.0337918871675434e-05,0.00523776630464159,0.0024680230171094013
-0.6081943254936862,0.0819326206411454,0.3108778105577249,0.11885985032238111,-0.0282401798096119,0.03248463376006758,0.008549867725621515,0.033282347789872574,0.9681517448543852,0.00027053989168604947,0.004629571979147903,0.0025499556377505464
-0.5650636730844754,0.046175527130757614,0.3138335088233939,0.09263481239200146,-0.04891967472669468,0.0011533820148417612,0.017267072856417334,0.044253025029342835,0.9740757924346078,0.0005843734005094434,0.004064508306063429,0.002596131164881304
-0.5675777525848172,0.0853634679745964,0.16372741580572903,-0.01184848834314169,-0.02834356972863466,0.01041878229891713,0.01712228627906218,0.03649645229612067,0.9688339056388172,0.0007481008163151725,0.003496930553478611,0.002681494632855901
-0.5815926452197734,-0.2348427519156293,0.30619336706037575,-0.041367209767186185,-0.04521355119702288,-0.035356134212387105,0.017921594182425244,0.037113110523664054,0.9637404068953215,0.0010542941833755481,0.0029153379082588375,0.0024466518809402715
-0.5198810330391482,-0.17890508787218454,0.25444656836220714,0.04192327008389728,-0.06104476543132915,-0.047063133756869706,0.012219108989225323,0.04368490718513631,0.9663804316128137,0.0013087407517377555,0.0023954568752196895,0.0022677467930680866
-0.4133278658994715,-0.2593976209308072,0.10237585283833577,-0.06856847259945008,-0.019830042978241487,-0.07632954622729902,0.024446784807221983,0.032410769038659054,0.9580147756801685,0.0014111166045760912,0.0019821290093202182,0.0020083491721372792
-0.45111410827553605,-0.41232470298317986,0.09395329640399593,-0.0595503143429037,0.04505941247783505,-0.11724869213821094,0.024615478038134863,0.030579472928452242,0.9702258942314615,0.0015050699009800874,0.001531014901044682,0.0015960244691540998
-0.3861072866488599,-0.460097155656645,0.14046515964870232,-0.11545978051729494,0.04523991984649513,-0.0627146029654477,0.028693202770340452,0.045310891819406604,0.9656962655033423,0.0016455350606287896,0.0011449076143958219,0.001135927313497455
-0.41898345637164414,-0.35200926346173605,-0.14928322053674906,-0.1712367565440497,0.05959980949086239,-0.0649701431107949,0.008393985640093403,0.0419657459201517,0.9623993128172983,0.0014962518400920405,0.0007259241580241778,0.0007839180500357188
-0.29155827137153223,-0.3118827770502634,-0.08822920009464696,-0.18042770363684593,0.10626974249570596,-0.051637191437979825,0.011528209008343183,0.03867001481832238,0.9611371093875132,0.0014080226399973935,0.00043436588665264554,0.0004720352729854554
-0.2459753225443575,-0.352408347203325,-0.02828133180146447,-0.1590612923116675,0.04259084614746649,-0.04463979633228141,0.02215771679418252,0.03947910253510529,0.9719973290222549,0.001379741308195929,0.00018839056410828805,0.00011962692578213041
0.010987611587833894,-0.37807034790617167,-0.08557406467916258,-0.20455625442433267,0.07425714132384738,-0.0814071755152967,0.013053293997871165,0.03386862116618019,0.9580516925250725,0.0012941672435167664,0.00019937817569612196,-0.0002584434221240413
