motionRotationRateX(rad/s),motionRotationRateY(rad/s),motionRotationRateZ(rad/s),motionUserAccelerationX(G),motionUserAccelerationY(G),motionUserAccelerationZ(G),motionGravityX(G),motionGravityY(G),motionGravityZ(G),motionYaw(rad),motionRoll(rad),motionPitch(rad)
-0.4268802503897017,0.1528148802794553,-0.04695118809186995,-0.05715988167033087,-0.038371482824340684,-0.03442448227434262,-0.005796273581405237,-0.0303335581312047,0.9532984493704001,-4.695118809186995e-05,-0.0004268802503897017,0.00015281488027945532
-0.38492777244932486,0.37862080843998935,0.10190812952326629,-0.012319661567414965,-0.05703952597268336,-0.07946505008030569,-0.008093226218827366,-0.03168391013850722,0.9551633053383443,5.495694143139635e-05,-0.0008118080228390265,0.0005314356887194447
-0.3277323011010586,0.37711610078398133,0.05753343037385657,0.08259835653903426,-0.011046170741767005,-0.03530918246049433,-0.0034780878588696255,-0.01928593969436787,0.9605187762179516,0.00011249037180525292,-0.0011395403239400851,0.0009085517895034262
-0.24798436178567937,0.4307990927188653,-0.23137097230242493,0.03275377454635398,-0.016618252873915516,-0.11771830519550704,-0.011335616880381712,-0.02308595022767847,0.960491025422442,-0.00011888060049717203,-0.0013875246857257646,0.0013393508822222913
-0.22733697117840213,0.5308766878521665,-0.266753539645109,0.08268389913154608,-0.0021430969742617574,-0.03776037819728018,-0.004206363821560839,-0.02565091073611717,0.9584589002315289,-0.00038563414014228107,-0.0016148616569041667,0.0018702275700744578
-0.17926955069395512,0.49473797602383257,-0.15747230523799058,0.11489131962120352,-0.0017157558570160183,-0.05613513707064926,-0.009133638621514974,-0.0215935379650196,0.9538378123390356,-0.0005431064453802716,-0.0017941312075981219,0.0023649655460982904
-0.22849719231998034,0.32263903009073336,-0.21622936065933449,0.12661304790963498,-0.03137127540893946,0.0007757880968399192,-0.011973025872489983,-0.02101520334510518,0.9587073409253398,-0.0007593358060396061,-0.0020226283999181024,0.002687604576189024
-0.058449403108157626,0.4367793333267863,-0.18981130366722218,0.15578635551724612,-0.004194343410189681,0.019109862345255225,-2.5013927467476896e-06,-0.022087847301097373,0.9587407228620036,-0.0009491471097068284,-0.00208107780302626,0.0031243839095158104
-0.012360228495314797,0.3209896880454658,-0.14222207554455074,0.13911905602241334,-0.04012720068376711,0.026251849382652293,-0.009606947483704482,-0.029510948613244863,0.9590147519542523,-0.0010913691852513791,-0.0020934380315215744,0.0034453735975612763
0.09092094982095941,0.38217011097614234,-0.17260141976057797,0.16513557793592476,0.03473476800673164,0.0880717546177314,0.0006035751052750034,-0.038028347761920336,0.9636878257333411,-0.001263970605011957,-0.002002517081700615,0.0038275437085374185
0.1020913185249114,0.39631369932302585,-0.1815893802791354,0.13311262951541689,0.09876574823573754,0.04600438863256414,-0.0019358935428837537,-0.02390256507489514,0.9583047728170018,-0.0014455599852910925,-0.001900425763175704,0.004223857407860445
0.013643516096710925,0.16841373483606087,-0.06258424842395378,0.1617618869063247,0.03670803258363134,0.09603303536556129,-0.006603331505092485,-0.0181488448498785,0.9499782677720437,-0.0015081442337150466,-0.0018867822470789927,0.004392271142696505
0.05232073985421558,0.12993997192057147,0.10581564826573367,0.11422642367292507,0.06432461328067068,0.0824167120881562,-0.010579861485181018,-0.021760726241786647,0.9628317159693377,-0.0014023285854493127,-0.0018344615072247773,0.004522211114617077
0.16038146383849403,0.1259900202943076,0.10234887485411107,0.0899233499892201,0.07532010496319488,0.0996600609911611,-0.011046398262753889,-0.020550554149170244,0.9565430404215777,-0.0012999797105952015,-0.0016740800433862832,0.004648201134911384
0.3858066857870997,0.0644654932092102,0.11834804556822191,0.13046358899034494,0.07216712851790523,0.10335359976335957,-0.00980073734039531,-0.027653470124970277,0.947623769052717,-0.0011816316650269797,-0.0012882733575991837,0.004712666628120595
0.43481474498647515,-0.026659101625082796,0.1667457225831923,0.04455201344856739,0.04529474560096057,0.0692981200968396,-0.0050203110389345105,-0.01965691131439095,0.9597208558236612,-0.0010148859424437874,-0.0008534586126127085,0.004686007526495512
0.2554155462209828,-0.23422366337184702,0.20461313245926654,0.00797886278354951,-0.0010597865244231595,0.09609215171050084,-0.0038408424143079184,-0.015247703039517476,0.9534265441993575,-0.0008102728099845208,-0.0005980430663917256,0.004451783863123665
0.3253787917335692,-0.2857525039699891,0.2124909052797694,0.015918310279850065,0.049261024223889616,0.08268239300973157,-0.005988289621410169,-0.023673757682419198,0.9630759089984259,-0.0005977819047047512,-0.00027266427465815634,0.004166031359153676
0.3263407691133429,-0.18448956453380694,0.24633192039988444,-0.0695642353023591,0.010264391248230226,0.07051536585546758,-0.013895699907505946,-0.012731345733886562,0.9581491341166164,-0.0003514499843048668,5.367649445518658e-05,0.003981541794619869
0.32211728003776924,-0.3439286130297746,0.18789802706075956,-0.06578369554032575,0.052177030487435674,0.06776983770931728,-0.003822841448286724,-0.02476435579055806,0.963877079362657,-0.00016355195724410726,0.0003757937744929558,0.0036376131815900946
0.2993694599890463,-0.4240015716194363,0.020345402203282875,-0.12873573849350747,-0.06211101221478295,0.002148040397325088,0.0026646800439194557,-0.018477911345657384,0.9615402454744455,-0.00014320655504082436,0.0006751632344820022,0.0032136116099706585
0.39880071193467614,-0.21438309403553987,0.12053157182639096,-0.1143599775148661,-0.02298834871313056,0.003162120716787756,-0.0005633755265756586,-0.016095446817225537,0.965215090532544,-2.26749832144334e-05,0.0010739639464166784,0.0029992285159351185
0.21435714939147604,-0.44757610298797434,0.21245762362476528,-0.22748233206095742,-0.031831082732216597,-0.006135403564019362,0.003646479819545667,-0.015340431896285433,0.9630866263158432,0.00018978264041033188,0.0012883210958081544,0.002551652412947144
0.1928011192051636,-0.2733008669985343,0.05496010680212976,-0.20067321659723716,-0.07605827507309801,-0.038444818811045216,-0.005522187461146258,-0.016875466603403128,0.9513198098633506,0.00024474274721246166,0.001481122215013318,0.0022783515459486097
0.17240106071020533,-0.251413389213173,0.052534232951150395,-0.2634172358905344,-0.08548344323226989,-0.06866218672909268,-0.0018052237985256999,-0.011078422105766096,0.9604134360281431,0.0002972769801636121,0.0016535232757235235,0.0020269381567354365
0.13939451996067045,-0.27663262269848066,-0.08546872033474995,-0.22823341119491056,-0.1092439785333711,-0.05288515407931955,-0.0016853298289690177,-0.015118725779839262,0.9489265302768475,0.00021180825982886208,0.0017929177956841937,0.001750305534036956
-0.01027823630200142,-0.254252691354126,-0.023705471698725944,-0.22291371381862768,-0.038511446113718685,-0.12957621163643895,-0.0010545436838149233,-0.021025263991870578,0.9620566858256596,0.00018810278813013615,0.0017826395593821922,0.00149605284268283
-0.06809434353018404,-0.06567033877006258,-0.10246210885508822,-0.1504590648999621,-0.10146175742490039,-0.10937280916009025,0.000617672645962338,-0.023976043593836593,0.9644775353647903,8.564067927504794e-05,0.0017145452158520082,0.0014303825039127674
-0.07366852248596116,-0.0028143057853254405,-0.23822756392009875,-0.25302057161575814,-0.13779217140461184,-0.12294041134041793,-0.004259635146794331,-0.027517937215583932,0.9574459214821128,-0.00015258688464505084,0.0016408766933660472,0.0014275681981274421
-0.13857523645231937,0.05582264613460364,-0.17285243482284882,-0.19554239053710434,-0.12160126010395687,-0.15222744522095896,0.0009209299853069814,-0.01690373287497356,0.9601726262582007,-0.00032543931946789963,0.0015023014569137277,0.0014833908442620457
-0.14820948754090832,0.1585742269321428,-0.13984770321072057,-0.09963241686643051,-0.08231270382147932,-0.20593192330111898,-0.006432870400320472,-0.014238448332741224,0.9684526233098798,-0.0004652870226786202,0.0013540919693728194,0.0016419650711941886
-0.2696533164325,0.21423722427688455,-0.30351937500715276,-0.08773828299363107,-0.0770901690638607,-0.17761597266577006,0.0033842846134085986,-0.021707168101417006,0.962044325001766,-0.000768806397685773,0.0010844386529403193,0.0018562022954710733
-0.19722158797368125,0.11438953857233808,-0.21993051573969663,-0.073923194605248,-0.1010394293578559,-0.13764995993160334,0.003542731555083457,-0.01705826486436477,0.9658602351378203,-0.0009887369134254696,0.0008872170649666379,0.001970591834043411
-0.452502271402332,0.23538266451880024,-0.31071773962328303,-0.0006803368027821048,-0.11678468259669143,-0.08576094913241185,-0.004757329377163982,-0.017117449361809457,0.9592001553695776,-0.0012994546530487525,0.0004347147935643059,0.0022059744985622113
-0.41364246275384525,0.3468800718535342,-0.3224255600305864,0.021240162890890056,-0.059609742076486456,-0.06086248315500473,-0.0021643222126795673,-0.024191180605516654,0.9610695550963211,-0.0016218802130793391,2.1072330810460616e-05,0.002552854570415746
-0.4814390478074144,0.3575573566257692,-0.15487072047196182,0.015675822189471257,-0.07261269316820716,-0.05095324759151949,-0.010373977442445791,-0.015026282405451886,0.9602648747964874,-0.001776750933551301,-0.0004603667169969538,0.002910411927041515
-0.6347004734386297,0.1131253454416127,-0.24695235015628256,0.12909471599489297,-0.054836709847608585,-0.008288858107535829,0.002119770055400564,-0.014297211927130932,0.9499538633769247,-0.0020237032837075834,-0.0010950671904355837,0.003023537272483128
-0.5557924057828377,0.24337670553436971,-0.16710362588643393,0.10504077399851765,-0.027398207551881743,0.0010176108614813849,-0.016808987481274903,-0.008720151885005216,0.9504218859152473,-0.0021908069095940173,-0.0016508595962184216,0.0032669139780174975
-0.5508026726494176,0.18429585983225005,0.021258909297618228,0.15858694391519632,-0.043682415994595006,0.02476241155652731,-0.007646283625336682,-0.03110331209057364,0.9634251975085009,-0.0021695480002963995,-0.002201662268867839,0.0034512098378497477
-0.695434380827565,0.25323095831142206,-0.06941139104298195,0.18399967504584833,-0.028741895970458307,0.05714491490747831,-0.008999131366881515,-0.019343838363265607,0.9707630464246452,-0.002238959391339381,-0.0028970966496954043,0.00370444079616117
-0.49684396253428936,0.12104272898689597,-0.0670231909480726,0.245553595811116,0.03465330012288827,0.07448807566498428,0.005417349555016443,-0.02098200745928148,0.9623777982229454,-0.0023059825822874538,-0.003393940612229694,0.003825483525148065
-0.4605683338146903,0.07028349999188803,0.149755141114228,0.23561622983314223,0.036351969004205335,0.11919006911675104,-0.005082532945927849,-0.020534878390770568,0.9703192553814284,-0.002156227441173226,-0.0038545089460443843,0.0038957670251399536
-0.46150937414623244,-0.006162629160141691,0.09897712575855049,0.2539587676680205,0.02379562861477144,0.13006151815964892,-0.0005026529313684653,-0.020325291693620233,0.9570326781709619,-0.0020572503154146758,-0.004316018320190616,0.0038896043959798124
-0.5269773433620003,-0.05609882621749443,0.2982221796510061,0.2466497344689434,0.05882579558660359,0.18957537806833158,0.005669351131711221,-0.017784793721324486,0.9646403051286095,-0.0017590281357636696,-0.004842995663552617,0.0038335055697623177
-0.3507135281252867,0.014913246648243728,0.41553099779766384,0.2384342957611415,0.0869518077577328,0.12234816575131228,0.0028414509435853953,-0.019118991387339676,0.9681640649570238,-0.0013434971379660057,-0.005193709191677904,0.0038484188164105617
-0.2737797167741192,-0.32876287226512213,0.3941193211221326,0.21871905488882215,0.04969804667481992,0.1816025955671406,0.0012322084049376102,-0.014183258724298693,0.9606606487288207,-0.0009493778168438732,-0.005467488908452022,0.003519655944145439
-0.19762820503897777,-0.20866472736050284,0.2647603744670099,0.21848558917141567,0.05839929047544687,0.15288705085482057,-0.008800606748937973,-0.015564354168800799,0.9624611470000904,-0.0006846174423768632,-0.005665117113491,0.0033109912167849365
-0.140653036969892,-0.36089995463437996,0.3935366429246591,0.13445341578273293,0.11800749505385463,0.10251353555017109,-0.0017096583921346882,-0.012196366806822206,0.9603183340680217,-0.0002910807994522041,-0.005805770150460893,0.0029500912621505566
-0.10730994557691592,-0.36013326603165297,0.21456447231463885,0.19037240766949903,0.1411833429358464,0.1163693607906498,0.0061129826563448095,-0.01331092795367381,0.9522020640739224,-7.65163271375652e-05,-0.005913080096037809,0.0025899579961189034
0.033070951168838215,-0.44933133466824726,0.29691047756138145,0.1418433743177909,0.07552721859966917,0.14234512135240607,0.0014371591499516914,-0.019292733663647265,0.9598918243494702,0.00022039415042381626,-0.00588000914486897,0.002140626661450656
0.019310826455048148,-0.4671593089734343,0.1606737840767038,0.0672881787741009,0.11603750839274513,0.07927536045874711,-0.004438530070541255,-0.013119261057298421,0.9563741490555147,0.00038106793450052006,-0.005860698318413922,0.0016734673524772218
0.0616397628547002,-0.35364202293179253,0.0834947016833922,0.08988746408508493,0.08513205402449324,2.943547658130173e-05,-0.0018054814181305747,-0.009156658604197194,0.9608886253361966,0.0004645626361839122,-0.005799058555559223,0.0013198253295454295
0.223252078659686,-0.30058148141936336,-0.011234045389799344,-0.032011452259576884,0.09358765627849727,0.08564805295888646,-0.006003218637925634,-0.016331063617685465,0.9595750891739183,0.00045332859079411287,-0.005575806476899536,0.001019243848126066
0.24012806803865067,-0.4315975495210497,0.14669879768933525,0.002569860967454875,0.11518629460389436,0.04070681344786097,0.0034646635711145664,-0.012619830032585167,0.9567229350305716,0.0006000273884834481,-0.005335678408860886,0.0005876462986050165
0.3199015308047714,-0.40848334359280647,0.043221620473733346,0.007956639344847714,0.10993312703297924,-0.03938512516662778,-0.000767471765956815,-0.011073784088361044,0.9581065496467035,0.0006432490089571816,-0.0050157768780561135,0.00017916295501221004
0.2800489193371051,-0.34238952445466314,0.08120182884505785,-0.08357828852295636,0.08741281042683355,-0.07020849386124928,-0.00805290142689828,-0.01787199206554814,0.9683417094143444,0.0007244508378022394,-0.004735727958719009,-0.00016322656944245314
0.397309135003792,-0.2895691148692288,-0.1495510888249128,-0.11815109551363828,0.014480143953978276,-0.06897558423160745,-0.0014843448377826814,-0.013944069304710479,0.9602031555352464,0.0005748997489773267,-0.004338418823715217,-0.00045279568431168195
0.510385019290866,-0.24140427557075142,-0.16849125719386235,-0.08369176157747006,0.03447977118098809,-0.04845928505005295,0.000128189657014813,-0.015338947338434656,0.9584293335554508,0.00040640849178346424,-0.003828033804424351,-0.0006941999598824334
0.5271245553168764,-0.21330399898108407,-0.18838178498322378,-0.1661455016146303,0.018417082088759557,-0.04482578075835066,-0.0002429726068976518,-0.01454038850742171,0.9523604100649459,0.0002180267068002405,-0.003300909249107474,-0.0009075039588635174
0.612082948568983,-0.13690474572144362,-0.10414637234140978,-0.12314916643184168,-0.02658048433975932,-0.12808190172694162,0.002503870681052412,-0.008047308804051908,0.951088143275923,0.00011388033445883072,-0.0026888263005384913,-0.001044408704584961
0.5967534621644346,-0.06418214927153224,-0.23486692706658435,-0.1372947893951794,-0.008851420148064254,-0.06978254818836066,-0.006772338687345016,-0.015981986602492435,0.961403065630886,-0.00012098659260775364,-0.0020920728383740563,-0.0011085908538564933
0.48606761084983485,0.017212671371373223,-0.15046035543715036,-0.13471923946108397,-0.016213464651998806,-0.0911076789641815,-0.0028934744989818025,-0.0028886098626427076,0.9634312115731644,-0.00027144694804490403,-0.0016060052275242214,-0.0010913781824851202
0.5675756875801391,0.08533525751547105,-0.1470090158678968,-0.03426919898791668,-0.02499958584956135,-0.037747536643646364,0.005403983418095915,-0.010541483728518807,0.9576034600541095,-0.00041845596391280085,-0.0010384295399440823,-0.001006042924969649
0.4485730809767531,0.1700170968051432,-0.1186393600596234,-0.06505879408735006,-0.07182584575270011,0.0038058749190261736,0.00783693756623329,-0.01248911115414417,0.9605540749681959,-0.0005370953239724242,-0.0005898564589673291,-0.0008360258281645057
0.34733830955819767,0.2540714793953055,-0.04601962548872722,-0.11121596502311443,-0.06314783633680812,-0.07078682425129058,-0.0076290371674604335,-0.01847655897507152,0.9646433427892535,-0.0005831149494611514,-0.00024251814940913141,-0.0005819543487692003
0.3890010604876324,0.49811409283216657,-0.019857926137101353,-0.0343423046916149,-0.06541790701059073,0.018816946758569444,0.0023789916087739327,-0.013346547229844484,0.9607215254299625,-0.0006029728755982528,0.000146482911078501,-8.384025593703372e-05
0.35460759545253656,0.35032489612558343,0.03789478987472228,0.024699908878762007,-0.06911419693319285,0.0033906498676901965,0.005385464239758636,-0.012346891684324644,0.9541633421217772,-0.0005650780857235305,0.0005010905065310375,0.00026648464018854973
0.2573768954045281,0.515423876700969,0.06212096915168418,0.08413777967785907,-0.09079969406468756,0.0660174365495259,0.0015451080532106131,-0.009488673401669348,0.9607021021860617,-0.0005029571165718463,0.0007584674019355658,0.0007819085168895188
0.36285004018474315,0.3754964242776414,0.19962662815033924,0.05841061531468472,-0.03773185404003837,0.061291995399948854,0.004146876432476075,-0.013942329695752388,0.9593846375581333,-0.00030333048842150705,0.001121317442120309,0.0011574049411671604
0.2341644448253859,0.48825488885064594,0.07657190357246632,0.06066280105926755,-0.05736282922713901,0.07090849632884214,0.01035048918132681,-0.005962472107117038,0.9717933609782518,-0.0002267585848490407,0.001355481886945695,0.0016456598300178063
0.11480121842380532,0.4271032701032712,0.031522094840395753,0.11989443261883127,-0.08652143293372955,0.038157123842724974,-0.003632987041782507,-0.005894679227268405,0.9625056793646928,-0.00019523649000864493,0.0014702831053695004,0.0020727631001210777
0.03598735556280202,0.44239298539645644,0.02791803640702159,0.12621149299942086,-0.0453276876406355,0.09431226684953264,-0.0014541660210509923,-0.007878660917816561,0.956809476194596,-0.00016731845360162334,0.0015062704609323024,0.0025151560855175338
0.07091788394477563,0.36886387695597495,0.1048093155485104,0.11019701919145944,-0.01799262127490594,0.1329020438555725,0.002258682659544347,-0.013243146625069906,0.963337500354671,-6.250913805311293e-05,0.0015771883448770783,0.0028840199624735087
-0.026301476384583612,0.30390039518155826,0.17456376146886762,0.16196870439129513,0.024450786752570872,0.08958167180975538,0.0010482222068206124,-0.01089313599942937,0.9560047848960519,0.0001120546234157547,0.0015508868684924945,0.0031879203576550674
-0.11247298483363041,0.17627367657336696,0.16183836283527206,0.1633008831229189,-0.012667188825690866,0.06746761266303808,0.0005620730287316934,-0.0183719050943094,0.9624597971641852,0.00027389298625102673,0.0014384138836588641,0.0033641940342284335
-0.1099594117841992,0.2158292430107498,0.17258818576098456,0.16441074158505053,0.03116969441588513,0.09535999726250621,0.0037799090485025276,-0.014978155234226622,0.9616370949868741,0.0004464811720120113,0.001328454471874665,0.0035800232772391833
-0.3391353782205504,0.15029586937173509,-0.031334724220755256,0.09118057314939086,-0.03128617338763166,0.09922785162216276,0.0036730842395124993,-0.004686080958131334,0.9600067354946338,0.0004151464477912561,0.0009893190936541144,0.003730319146610919
-0.2619990897055027,0.029703823625358144,-0.041546063962765514,0.073750622176437,0.054996987668238635,0.09491120716057651,-0.00803377382762127,-0.01170869498661279,0.9650091993725598,0.0003736003838284906,0.0007273200039486119,0.0037600229702362768
-0.202859271473206,-0.0866823767101555,0.029888778867769666,0.14059662140437226,0.02433240862227173,0.0851628010922535,0.009597853263722266,-0.009400506567938916,0.9624899079300606,0.00040348916269626026,0.0005244607324754058,0.003673340593526121
-0.34040666683327453,-0.013837501855356066,-0.11813837127674831,0.07339021769916967,-0.006198263002133251,-0.014946288541413355,0.004698679157104395,-0.010230915647775599,0.9619796613354351,0.0002853507914195119,0.00018405406564213128,0.003659503091670765
-0.32003405648467065,-0.12875079274555817,-0.2102144261712667,0.04145396393054562,0.057375438877977886,0.0024788143848331334,0.006081298652496169,-0.010065631065254778,0.9581855879351271,7.513636524824522e-05,-0.00013597999084253936,0.0035307522989252065
-0.36987435109975275,-0.1908220021615467,-0.06458520165828004,-0.008781671450104596,0.002964965845878736,-0.027205319735491833,0.008533277517658915,-0.017710907052308697,0.9689735507483856,1.0551163589965177e-05,-0.0005058543419422921,0.0033399302967636597
-0.26767312652100694,-0.05932214885967246,-0.3336983095993909,-0.05551512418059286,0.03509242009774089,-0.04359031413390139,0.008519162055935748,-0.016143565112403307,0.9659114294263175,-0.00032314714600942577,-0.0007735274684632991,0.003280608147903987
-0.3928507352565378,-0.3562881438958875,-0.21985643330184518,-0.012555079517992278,0.06915891692877238,-0.09969540684362374,0.009397978859275197,-0.004364358852081565,0.9607996822007879,-0.000543003579311271,-0.0011663782037198368,0.0029243200040081
-0.24750075355599246,-0.16121535407803342,-0.434855019463749,-0.15025130133024903,0.01525079277157507,-0.10341226334788949,0.010770368231952598,-0.005511507037560682,0.9537967675226274,-0.0009778585987750199,-0.0014138789572758295,0.0027631046499300665
-0.27078143055747894,-0.258985703507997,-0.42484675689062557,-0.15913868743826676,0.06833059021653083,-0.14947629131824242,0.0029733983975083044,-0.00793903726868531,0.9665064710684095,-0.0014027053556656456,-0.0016846603878333086,0.0025041189464220697
-0.17151549105247854,-0.31772838281390586,-0.3869823146588592,-0.12302735779372166,0.013611397976750301,-0.10566591571438763,0.0027131669578499343,-0.009211155412469842,0.954001825585767,-0.0017896876703245045,-0.001856175878885787,0.002186390563608164
-0.11133808151284943,-0.3348246219153901,-0.27152088917672224,-0.15575880974089706,0.0713484388386924,-0.19470751732892883,0.0009056628924035957,-0.008057045307936675,0.9609522928199667,-0.0020612085595012267,-0.0019675139603986366,0.001851565941692774
-0.03510460579275159,-0.2619076214931335,-0.3289606831127358,-0.25858236723286965,0.026553187173920648,-0.14847097713681157,0.010542382506609431,-0.012156845489821102,0.9571466086106103,-0.002390169242613963,-0.002002618566191388,0.0015896583201996405
0.0033752535150015847,-0.26290291458222664,-0.265631933655977,-0.2517842493363112,-0.0003557100746472124,-0.14379151258121325,0.010739415204967882,-0.008577798033207384,0.9548953273797564,-0.0026558011762699394,-0.0019992433126763865,0.0013267554056174138
-0.06177410192300659,-0.17585656585634707,-0.11894924417380101,-0.18475521821457203,0.03245788402284932,-0.14923237841306236,0.006068172345722403,-0.012980449073664933,0.9524852828018787,-0.0027747504204437405,-0.002061017414599393,0.0011508988397610667
0.058862947621427686,-0.1322666548537918,-0.02672507619313183,-0.2573905918895058,-0.0530948693226074,-0.11932696987274206,0.0069265708284421525,-0.0025137185301788547,0.9592233991560669,-0.002801475496636872,-0.0020021544669779658,0.0010186321849072748
0.21710872354575958,-0.05602454555118311,-0.06882109080391095,-0.21456318584734482,0.00656525616340478,-0.1272619064300674,0.005652029135883862,-0.005309251448854279,0.9667253266530216,-0.002870296587440783,-0.0017850457434322063,0.0009626076393560918
0.26016157138113916,0.039752554282540556,0.03355191054037987,-0.2016755927269272,-0.04507314444114074,-0.022546987846907604,0.007649910146763415,-0.00927883074763931,0.9651378674299357,-0.002836744676900403,-0.001524884172051067,0.0010023601936386326
0.30857700841104974,-0.09653825872179622,0.16254992738868934,-0.11688818119195624,-0.03431884865749933,-0.023828705799768778,0.006420872916440185,-0.008228913679001977,0.9581775797618969,-0.002674194749511714,-0.0012163071636400171,0.0009058219349168362
0.253446006046617,0.17861866159488332,0.19814607617343583,-0.13639572559827678,-0.04752098193957147,-0.05074553198974858,0.0080935346814476,-0.007456007848690704,0.967642113034395,-0.0024760486733382777,-0.0009628611575934001,0.0010844405965117195
0.34949645447496663,0.2093731196585699,0.22626209608458156,-0.07715933533884137,-0.06557468278446393,0.03664996059739502,0.003182261862238693,-0.01007534692115297,0.9628777580657718,-0.0022497865772536964,-0.0006133647031184336,0.0012938137161702895
0.19209101611525814,0.1665159584185928,0.25774440806693977,-0.10647109110349315,-0.12463732240784568,0.09234848832448679,0.005904328961401172,-0.00320125531366802,0.959916064765934,-0.0019920421691867565,-0.0004212736870031753,0.0014603296745888824
0.4110806146538719,0.36317374055168666,0.34307321319347234,-0.04145655008751468,-0.11943417125809155,0.06632265233788341,0.0009995849615770172,-0.004575490106770786,0.9588489583416553,-0.0016489689559932843,-1.0193072349303446e-05,0.0018235034151405692
0.4036922997673934,0.2594732313388285,0.2213529429474531,0.09259130124463386,-0.1146052066751687,0.09173235237616155,0.008747889198124886,-0.007923139925671868,0.9523132054503138,-0.0014276160130458312,0.00039349922741808996,0.0020829766464793976
0.3711392549122758,0.16928913293483472,0.26479921707835413,0.04656331885733772,-0.1002073451223286,0.1393875839898128,0.013319682916269084,-0.004094471442613208,0.9637046045227745,-0.001162816795967477,0.0007646384823303659,0.002252265779414232
0.3023490400646195,0.2415124178746716,0.3320008513849799,0.14980429382518215,-0.04577904855913681,0.16782716520653404,0.01372128086989204,0.005050536557017245,0.9629032202818093,-0.000830815944582497,0.0010669875223949853,0.002493778197288904
0.3210336492126993,0.22423161077950665,0.3300013569230332,0.09515444852166541,-0.08559032644705998,0.17262790343304663,0.009482883180190398,-0.004293867789890916,0.9628821865562723,-0.0005008145876594639,0.0013880211716076846,0.0027180098080684103
0.29407855462540977,0.25904160069021526,0.3036418353846939,0.14348475698640495,-0.0999014974935541,0.1715694337925873,0.00825897921947897,-0.011550795786116288,0.9582981860880742,-0.00019717275227476995,0.0016820997262330943,0.0029770514087586256
0.18141455263596995,0.12879372476541917,0.17141252505144294,0.22231765414971014,-0.06039625465368529,0.15952635917124255,0.002367857710239066,-0.01253646365196734,0.9610212387158075,-2.5760227223326998e-05,0.0018635142788690643,0.003105845133524045
0.07177833510364245,0.0977934682760975,0.14434441794077066,0.19756356650126428,-0.07830653336131363,0.16416543395210992,0.0025992710409076508,-0.006384847587404359,0.9648282076395135,0.00011858419071744367,0.0019352926139727068,0.0032036386018001427
0.09852537769957426,0.10006975185706574,0.08313211878229863,0.2580636402446388,-0.05000634791462508,0.19451479154868345,0.0013301416561399089,-0.003906638625927721,0.9616944284660662,0.0002017163094997423,0.002033817991672281,0.0033037083536572084
0.050656075519090314,-0.04541799455553065,0.06509570862820155,0.2343263685437384,-0.051978608766945725,0.08528394166343063,-0.0018149550670554567,-0.006630156076278652,0.9557033785863519,0.00026681201812794387,0.002084474067191371,0.0032582903591016777
0.10933713701815118,-0.05082195838307237,0.024831391748356392,0.3278362012196679,-0.11017088621403787,0.12645810481000053,0.00244800151064214,-0.005526790317483302,0.9621670873408825,0.0002916434098763003,0.0021938112042095225,0.003207468400718605
-0.053657180020102974,-0.18273051749902366,-0.08462073535189826,0.2292710310895514,-0.04727557979718662,0.027511581769594277,0.011955847972310085,-0.0075047785704229425,0.9662462436134542,0.00020702267452440203,0.002140154024189419,0.0030247378832195817
-0.15710637635450522,-0.24855035825340388,-0.10809587769433338,0.2653137069459412,-0.052718608699416004,0.04841236534206344,0.006384286994005069,-0.007755213541631651,0.9570283459647193,9.892679683006865e-05,0.0019830476478349137,0.0027761875249661776
-0.28653272306525235,-0.36024663650844035,-0.24129294452140587,0.21940797410382967,0.007126171171226621,0.029140699961293128,0.0064397065587666275,0.0015475257730562819,0.9629522999278591,-0.00014236614769133724,0.0016965149247696616,0.002415940888457737
-0.33968825092994526,-0.4021371362814218,-0.14718336671067056,0.17260444629200303,-0.027891722191353708,0.007826398433454635,0.002323078473132599,-0.0013323198435466175,0.958555427403815,-0.0002895495144020078,0.0013568266738397164,0.0020138037521763154
-0.4837563562469622,-0.3372546884610355,-0.30488864847800146,0.13936561291914645,0.07413260912791321,-0.021876577355462355,0.008694519164870268,-0.000418220028506754,0.9609594120905319,-0.0005944381628800094,0.0008730703175927542,0.0016765490637152798
-0.38417384716835123,-0.3717640424232793,-0.24470154654796694,0.09986994930919929,0.017142497620859027,-0.044063677990302495,0.005503479798024517,0.0032058147702357254,0.9578195693982003,-0.0008391397094279764,0.0004888964704244028,0.0013047850212920004
-0.5229578471020333,-0.30442876627809695,-0.22788347305841805,0.05914512560988147,0.04498459552187832,-0.07298461944946667,0.011931493249794228,-0.0020228521832430903,0.9604480623121746,-0.0010670231824863943,-3.406137667763043e-05,0.0010003562550139036
-0.5442472487271786,-0.3014723361340894,-0.17187542204805256,0.04326681535109534,0.09395895486630514,-0.05422028018871027,0.0020408415181008208,-0.001174007374783446,0.95310923247086,-0.0012388986045344468,-0.000578308625404809,0.0006988839188798142
-0.5565803425393516,-0.3238933438004111,-0.2178102740330593,-0.046439086634482124,0.01334766384654453,-0.04735904601371991,0.007435356962100615,-0.008372252031675185,0.9465407069916941,-0.0014567088785675062,-0.0011348889679441605,0.00037499057507940306
-0.6215401201994669,-0.32548784403778014,-0.06639993120377881,-0.02198189671555484,0.11258448617055389,-0.005307823409535556,0.017195101884120732,0.007062412896733373,0.956776521545316,-0.0015231088097712852,-0.0017564290881436275,4.9502731041622895e-05
-0.5710955550672967,-0.37448824292012217,-0.08717005195248945,-0.05019554540513816,0.08686652951402854,-0.07098734264363786,-0.0005262510085531557,7.310603194551294e-05,0.9617927303238305,-0.0016102788617237745,-0.0023275246432109243,-0.0003249855118784993
-0.6141130741436748,-0.1901769691053331,0.12405519086485539,-0.11029675035669789,0.13637807864211965,-0.09536905653126006,0.009199325552329163,-0.0007180400793848948,0.9611274090910091,-0.001486223670858919,-0.0029416377173545993,-0.0005151624809838325
-0.541069722136319,-0.18844624935441284,0.055215865624336266,-0.09500014883664509,0.07738180948714861,-0.0476672864996819,0.010249187611014574,-0.006986777029366254,0.9672672955636333,-0.0014310078052345828,-0.0034827074394909183,-0.0007036087303382453
-0.5324006271464209,-0.08409027327741717,0.1286079151806633,-0.1313329549146474,0.09051946293715786,-0.06699300931838591,0.007208139136921603,-0.0035025820966528925,0.9649960218396607,-0.0013023998900539195,-0.004015108066637339,-0.0007876990036156623
-0.5429525242597296,-0.11990980531993853,0.14811874773982636,-0.11437707035746572,0.04940105836081883,-0.050809430508189264,0.009813784478623386,-0.0026054183738764966,0.9534910129435612,-0.001154281142314093,-0.004558060590897069,-0.0009076088089356011
-0.4463153938934948,0.0016270402384477162,0.19210455247319685,-0.07045810759216646,0.08445268239539061,-0.05691578521035801,0.009854414840103376,0.0036338638326195924,0.9663211518164114,-0.0009621765898408963,-0.0050043759847905635,-0.0009059817686971532
-0.4752741809023031,0.035410782484835396,0.28579657525394503,-0.1144921566082071,0.14991039907950376,-0.020511137766845648,0.008304802795345458,0.002814592661294138,0.9526297358165317,-0.0006763800145869513,-0.005479650165692867,-0.0008705709862123177
-0.3843429396900563,0.12649907907798125,0.18852605325928615,-0.09792121302161992,0.07948953167850659,-0.0278380768775275,0.004171679799717115,-0.0028403449960392292,0.9648552533447701,-0.00048785396132766505,-0.005863993105382923,-0.0007440719071343365
-0.21870974766472953,0.05715087363288057,0.19165799623070756,-0.0808314203690955,0.07004170283146421,0.041498157113706566,0.006133108539541649,0.003128165546412683,0.9677174595471542,-0.00029619596509695745,-0.006082702853047653,-0.000686921033501456
-0.23633727856486236,0.14696534794856625,0.04626370734863475,-0.08582045964548929,0.06466829278207464,0.07893402796675156,0.005710936822266508,0.0026962018123894405,0.9597462687857233,-0.0002499322577483227,-0.006319040131612517,-0.0005399556855528898
-0.1481030940165112,0.35655127796585845,0.175332990917812,-0.029053784506448768,0.028137472575770595,0.10539324168410068,0.010818239270572145,-0.007285671432930144,0.9649890645785512,-7.459926683051071e-05,-0.0064671432256290275,-0.0001834044075870313
-0.0006575773070363663,0.2853489667828166,0.10506832852130452,-0.08427369759533254,-0.038509192544600085,0.10003700449408316,0.0017089501910997479,-0.002266201113478164,0.9624225485884592,3.0469061690793803e-05,-0.006467800802936064,0.00010194455919578534
0.11807845619989767,0.41928079887032244,0.04822022500001584,-0.008269890791030823,-0.024134240430792736,0.15589889864582918,0.002241306771972128,0.008894200030310974,0.9522159398599135,7.868928669080965e-05,-0.006349722346736166,0.0005212253580661077
0.2446020127069638,0.39690891902414027,-0.06550050160547843,0.08513079084408688,-0.028025572685382714,0.09664126278680898,0.010367945685765914,0.0015361124650387665,0.9623258120554995,1.318878508533121e-05,-0.006105120334029201,0.000918134277090248
0.25301970740186847,0.4308899934118816,-0.06892642872190612,0.09342997868428476,-0.03185743503058563,0.11984927891064492,0.010633358991234644,0.009676889408173423,0.9607890541563512,-5.57376436365749e-05,-0.005852100626627332,0.0013490242705021297
0.4220985734405994,0.3380930224699444,-0.1272638786704101,0.13122286393055033,-0.06204541357245058,0.05242275536045737,0.00884926161082514,0.005250219430565782,0.9719031213234715,-0.00018300152230698503,-0.005430002053186733,0.0016871172929720738
0.38011833906495734,0.3620266015522131,-0.33817956796785936,0.06886838375854291,-0.05137636706568661,0.0377189672636731,0.0119457739648118,0.0005956539360921589,0.9602943006861915,-0.0005211810902748444,-0.005049883714121777,0.0020491438945242873
0.35454345509310137,0.4303696390966508,-0.24571485931918546,0.14793920711091996,-0.05818392383908677,0.05203611085413458,0.00793683943596144,0.0029618737604524326,0.9587767742299339,-0.0007668959495940299,-0.004695340259028675,0.0024795135336209383
0.4226307776382484,0.40340402880149434,-0.229399673782046,0.15633353367857378,-0.03696711566064907,0.019074529100103668,0.016160883528757497,0.007589739995431962,0.963789014295009,-0.0009962956233760757,-0.004272709481390426,0.002882917562422432
0.5070521139061172,0.35370534653752816,-0.19951819376584107,0.12652510460907387,-0.09015974662252874,0.0518427442073419,0.012133767345539174,0.0008812062628809898,0.9583848283540815,-0.001195813817141917,-0.003765657367484309,0.0032366229089599604
0.5578572323874005,0.3412436670976584,-0.30290789154447045,0.11569951263844766,-0.04499758695166825,-0.06512277789667427,0.005896084833900634,0.009149686150918332,0.9608879273982777,-0.0014987217086863873,-0.0032078001350969083,0.003577866576057619
0.626180867537828,0.17991936860267793,-0.28044693024999573,0.13363493639315788,-0.06336067551484473,-0.00988850878919441,0.015672260162043906,0.009912971175222163,0.9618202926809254,-0.0017791686389363832,-0.002581619267559081,0.003757785944660297
0.6647118877340816,0.04341968814710942,-0.3237409599965913,0.14642385697250065,-0.11350825996413043,-0.044445118625034405,0.014986287008157389,0.010759231683467124,0.9658443933146641,-0.002102909598932974,-0.001916907379824999,0.0038012056328074065
0.733894293598863,-0.03243978213858023,-0.224206377789731,0.09517454565939976,-0.016106133578220938,-0.06642795718885787,0.004278655642460622,-0.0022681886614965008,0.9547107903415927,-0.0023271159767227056,-0.001183013086226136,0.003768765850668826
0.44317014512591035,0.07518217806354442,-0.1711864097281724,0.0754312720792916,-0.052134548811436754,-0.12427868847716124,0.00970571946833949,0.005835648293415051,0.9610858739792112,-0.002498302386450878,-0.0007398429411002256,0.0038439480287323705
0.4496189021644998,-0.13808733849283455,-0.1496042098021265,-0.002991626750240858,-0.017376944060101127,-0.11450231368803308,0.003668672432203101,0.0037693707953081056,0.9662193719264787,-0.0026479065962530042,-0.00029022403893572574,0.0037058606902395357
0.5607984626090884,-0.15236780220767407,-0.0012529589907108035,-0.022198945153014037,-0.08896145683300982,-0.10939313335928169,0.016146841910869094,0.0011297417697162318,0.9619260355829968,-0.0026491595552437155,0.00027057442367336266,0.0035534928880318617
0.4170359760718554,-0.2806710898156506,-0.06291467412964866,-0.04003890310391214,-0.02278355899824311,-0.13470662797457625,0.012074899311734198,0.011770905079797691,0.9538424059710446,-0.002712074229373364,0.0006876103997452182,0.0032728217982162106
0.2326543564570202,-0.2573762167404791,0.06259677895737767,-0.1105237221320543,0.003878908425149514,-0.14616135706121605,0.007664790274224497,8.458250468251945e-05,0.9640910091683476,-0.002649477450415986,0.0009202647562022384,0.003015445581475732
0.31778165492620375,-0.33466042751934355,0.10166231087371864,-0.1017223492534392,0.028284814985195746,-0.11563160287026485,0.009933022984553416,0.0024253159100645536,0.9658562224996678,-0.0025478151395422676,0.0012380464111284423,0.0026807851539563886
0.17260381925415402,-0.18673106653468097,0.19002279350613518,-0.1140565662292061,0.0188164455208995,-0.15920598127713192,0.007870191679006933,0.003945540850480472,0.9657169210165295,-0.002357792346036132,0.001410650230382596,0.0024940540874217078
0.18449832804778588,-0.3236639896215474,0.2903786971547976,-0.14049382308089456,0.0668411186827521,-0.14618594414991945,0.017871345210788925,0.002832195055410728,0.955766176350504,-0.0020674136488813347,0.001595148558430382,0.0021703900978001602
0.08967431296841001,-0.2518958639261401,0.22208785352978747,-0.16322237209056226,0.0155551900202799,-0.06716554459511026,0.00603423649898172,0.007421448501889392,0.9556331273468931,-0.0018453257953515473,0.0016848228713987922,0.00191849423387402
-0.012016696666090336,-0.29869383539339295,0.2273842825710466,-0.21891206968008492,0.05833405159392867,-0.0006152457374895785,0.003090552560178504,0.001793970937742799,0.9642844597423603,-0.0016179415127805007,0.0016728061747327016,0.0016198003984806272
-0.0885535128065439,-0.12711124998539763,0.5907961263171757,-0.21171702256081826,0.04316532913920981,0.0014851151057158809,0.008307485773516213,0.0040138875174016665,0.9705084022753064,-0.0010271453864633248,0.0015842526619261575,0.0014926891484952293
-0.09966840666332862,-0.16881041048273862,0.30229050588559064,-0.2200880020540742,0.04649467186895348,-0.0380642776208127,0.017607236885032396,0.004785052954106649,0.966022192430986,-0.0007248548805777342,0.001484584255262829,0.0013238787380124909
-0.15863265384180106,0.034589467461820914,0.20938523052750058,-0.1506432825556252,0.08075687548208266,0.034830098000917534,0.007002567430047412,-0.009851985311362239,0.9665429475842626,-0.0005154696500502336,0.0013259516014210281,0.0013584682054743119
-0.2383268407182351,0.030858406376510293,0.17118351119710035,-0.19532143186656203,0.08294837871430336,0.06520048449555983,0.014032774139710763,0.015203791490287171,0.9616843824102947,-0.00034428613885313327,0.0010876247607027928,0.0013893266118508222
-0.2981373637765243,0.05396619031703743,0.2377974027804571,-0.14855093472770747,0.07506894779985267,0.12981073364691265,0.020148141457694904,0.011156836909782131,0.9558895728728055,-0.00010648873607267615,0.0007894873969262686,0.0014432928021678596
-0.27239379466028635,-0.009577192846089447,0.21010907261213646,-0.16238152565993727,0.04825049734154613,0.06638791215451285,0.0032675800448375685,-1.2816301098118356e-05,0.9640738215353429,0.00010362033653946032,0.0005170936022659822,0.00143371560932177
-0.426192424889757,0.15770467852206252,0.10200942600865065,-0.1588966780143472,0.030327770423794892,0.1123684086654743,0.007001071732548723,0.007469587659533196,0.9647412475486579,0.00020562976254811095,9.090117737622521e-05,0.0015914202878438326
-0.3492564716345332,0.22545862288902974,0.1681782280695801,-0.08348920901747402,0.028974623387955478,0.1665113003167138,0.00903391511186319,0.005330471786864627,0.9622696030802832,0.0003738079906176911,-0.00025835529425830803,0.0018168789107328625
-0.3590795408573997,0.010716240330395144,-0.05175104194477952,-0.05044883660150043,-0.003152126289186992,0.16671790973260087,0.0168791881127376,0.013202522388964844,0.9570016228308622,0.0003220569486729116,-0.0006174348351157077,0.0018275951510632578
-0.36091745378228324,0.2111511086586028,0.05068601066950844,-0.054324485319535626,-0.026238738253346817,0.16841622560382707,0.015768431688897976,0.009949049795323633,0.963488845627835,0.0003727429593424201,-0.000978352288897991,0.0020387462597218605
-0.4278128381915271,0.2655398115055937,-0.012907428926823866,-0.01000233361635342,-0.02123317579011638,0.24008719316068006,0.008100671374488768,0.00047844232848656253,0.9630251262127126,0.0003598355304155962,-0.0014061651270895182,0.002304286071227454
-0.21941684735431924,0.28718866252911035,0.0066018200476041095,-0.011356440001936696,-0.0341080755858572,0.19189129660715326,0.021483183995624322,0.005604998560450627,0.9738191469248593,0.0003664373504632003,-0.0016255819744438373,0.0025914747337565645
-0.2945833741829467,0.31489280110262585,-0.13647727978161084,0.15632288144754725,-0.032457545742272206,0.20824002292381244,0.007150864504668797,0.010618648607360937,0.9622528301121261,0.00022996007068158943,-0.0019201653486267843,0.0029063675348591903
-0.2793145942426785,0.23419089333166873,-0.2808510470382382,0.09949005823536264,-0.06095200955130032,0.1363099378955563,0.011563825717148346,0.003986563227782413,0.9696290400700311,-5.0890976356648805e-05,-0.002199479942869463,0.003140558428190859
-0.06116791548159191,0.13525266317626017,-0.18811088021754843,0.17733254613373298,-0.07560832283119556,0.10428796228339368,0.01408771083478257,0.006908169761790188,0.9573005907941784,-0.00023900185657419723,-0.002260647858351055,0.0032758110913671187
-0.11115428936678484,0.1353755580822729,-0.20318602201100414,0.198163003088127,-0.08347371272978708,0.034766738203264466,0.00792746435946938,0.010441587365484391,0.9726951434339702,-0.00044218787858520136,-0.00237180214771784,0.003411186649449392
-0.033504254899328914,0.047337295112444916,-0.17935588480562847,0.190255259357844,-0.05037386702000207,0.05601007585143777,0.014656893201398201,-0.0004606119896928447,0.9541752071306973,-0.0006215437633908298,-0.0024053064026171686,0.0034585239445618365
-0.06781521393344914,-0.010644227321155136,-0.09754974252169016,0.2443681096777698,-0.07092919880308947,0.04837402217193087,0.010695372965032398,0.014397043885515666,0.9581348862052408,-0.00071909350591252,-0.002473121616550618,0.003447879717240682
0.11351609359567755,0.03410694547287065,-0.08561079942522588,0.22974607106635506,-0.06646648450341147,0.013522338973992685,0.009098619521485128,0.015240161678997492,0.9674111584443642,-0.0008047043053377459,-0.00235960552295494,0.0034819866627135523
0.1261962457167459,0.03722451686098248,-0.08518590187222622,0.28881638433143453,-0.10453996806617778,-0.04214351291902076,0.01911681443377524,0.000569097861667105,0.9653393226743356,-0.0008898902072099721,-0.002233409277238194,0.0035192111795745353
0.1626012367433655,-0.19951213331888573,-0.001621398577120306,0.2571261512340101,-0.0452670148718654,-0.023303203584229222,0.007495873070832885,0.010021653141037843,0.9571514544681399,-0.0008915116057870925,-0.0020708080404948288,0.0033196990462556492
0.23654270876901135,-0.2111194887063833,0.01744638014228523,0.2403905959712799,-0.1016739165066691,-0.059428147643047,0.014864276334792061,0.0015988184770635034,0.9659564561409583,-0.0008740652256448071,-0.0018342653317258177,0.0031085795575492656
0.2934752069046534,-0.29823249069747826,-0.036008317134298,0.257990467895998,-0.07151057731890012,-0.0980050768900904,0.01251116888984595,0.014541644092279874,0.9576695278486407,-0.000910073542779105,-0.0015407901248211643,0.0028103470668517875
0.2891751027660292,-0.2775433562675699,0.06808284399037473,0.23648775627142457,-0.09344490267286266,-0.07264672002231223,0.01784280725376735,0.007558126871246134,0.9632903844225039,-0.0008419906987887304,-0.001251615022055135,0.002532803710584218
0.4293733254849531,-0.3673137677004814,0.18752770416596373,0.21032360925802687,-0.11913539464819803,-0.12127160789072637,0.015569311597865124,0.006390018143287518,0.9566720032717116,-0.0006544629946227665,-0.0008222416965701819,0.0021654899428837364
0.40835567183380256,-0.3731276674572375,0.06527400841438147,0.20528632282828038,-0.09727959663072942,-0.14244911903264695,0.01594008929915076,0.01396061157041369,0.9610962505793812,-0.000589188986208385,-0.0004138860247363793,0.0017923622754264991
0.28294022913613404,-0.4767471807058573,0.19083117474695765,0.12314980576904369,-0.05644706670582949,-0.09084841487675618,0.014341645283604201,0.0024263608917441705,0.9646203623508918,-0.00039835781146142736,-0.00013094579560024529,0.001315615094720642
0.3842090492980646,-0.40338375251374853,0.1597279121995253,0.08392050853341898,-0.07414415688136397,-0.09866354626562317,0.015278397687857274,0.005459082182000098,0.959764006913758,-0.00023862989926190203,0.0002532632536978193,0.0009122313422068934
0.326703470048143,-0.4998029233782621,0.17897338495971887,0.04136022961610024,0.04096619026290706,-0.011286279367217796,0.010748621575465933,0.014486985326825581,0.9613367985595854,-5.965651430218317e-05,0.0005799667237459623,0.0004124284188286312
0.30619945241353524,-0.43202987703442103,0.18549995562334465,0.03845265296929059,-0.008884769105221816,-0.05398439404299898,0.011327092100636097,0.022222546256235952,0.9638585116059272,0.0001258434413211615,0.0008861661761594974,-1.9601458205789847e-05
0.2827219048191738,-0.369796502478668,0.20971168045431776,-0.04145398856440857,-0.015420563770511238,0.029149906015933626,0.014348321565149823,0.020568981781701308,0.9680004707489563,0.00033555512177547926,0.0011688880809786713,-0.00038939796068445786
0.10928045107892112,-0.30399880891953335,0.041036232494187405,-0.07469643430073859,0.017123974397510858,0.03576205034996195,0.01697122426889857,0.01718276035260609,0.9565138309973023,0.0003765913542696667,0.0012781685320575925,-0.0006933967696039913
0.19005826837459155,-0.1953886668336233,0.025627887093985495,-0.054310918983080825,0.012241547386286633,0.05216071326261874,0.009895084252359646,0.013937175578303977,0.9691004487380562,0.0004022192413636522,0.001468226800432184,-0.0008887854364376147
0.022844396412816312,-0.18913062262363367,-0.0713643433877781,-0.04765264198344562,0.03167949204878985,0.034434522785203356,0.011800046539299579,0.004461187976492161,0.9760238110036542,0.0003308548979758741,0.0014910711968450002,-0.0010779160590612482
0.15858673050102212,-0.17860321919804056,-0.05964536057938497,-0.11226753499898588,0.008134528753211428,0.08003626898221283,0.011989357550700592,0.01162227239702177,0.9650100774709202,0.00027120953739648914,0.0016496579273460221,-0.001256519278259289
0.03666665971394267,-0.07788523826862173,-0.05510182879545254,-0.09203699546826868,0.046149442300426155,0.11696749705758176,0.0033355664892507613,0.006145444639180935,0.9608575143410841,0.00021610770860103657,0.0016863245870599648,-0.0013344045165279107
0.03657762370481925,0.046078622930135316,-0.18710669697931226,-0.11122449750242666,0.06524863915258196,0.17614448216599668,0.01209247685177569,0.016083756490588904,0.9669258229596395,2.9001011621724303e-05,0.001722902210764784,-0.0012883258935977755
-0.10440102478683555,-0.03843898530220165,-0.2371446217245604,-0.08488957754614246,0.07448157772182819,0.08365450259827152,0.020901267699659675,0.020269597039088424,0.9566070090229708,-0.0002081436101028361,0.0016185011859779484,-0.001326764878899977
-0.10938550709049365,0.15541808575859106,-0.34271097504596554,-0.060539818542574605,0.11229351755796471,0.1642852853675024,0.02116288588515309,0.009531171516222035,0.9653439415210555,-0.0005508545851488016,0.0015091156788874548,-0.0011713467931413859
-0.29052684628109227,0.29163612335571676,-0.30655205400325203,-0.1255118922704641,0.11244414520501292,0.10478735144126027,0.017495480260315537,0.015864948295231426,0.9655500554127345,-0.0008574066391520537,0.0012185888326063626,-0.000879710669785669
-0.3360383818515918,0.2686260757181965,-0.35933465149449934,0.008598465116640074,0.10475753702459867,0.10992222155744759,0.015421238747239401,0.013939852807864214,0.960319052888452,-0.001216741290646553,0.0008825504507547709,-0.0006110845940674724
-0.3390277798127977,0.35307687424098533,-0.43043040730497556,-0.04760676736061057,0.11857494894293973,0.040773411940848006,0.013730167660926206,0.011445964059378382,0.9650642030818732,-0.0016471716979515286,0.0005435226709419732,-0.0002580077198264871
-0.39218242637570344,0.38528722486445954,-0.25776941841177115,0.03638897141071226,0.07279702411440699,0.0288220395922828,0.008073719697199314,0.030600250277165203,0.9631561150674642,-0.0019049411163633,0.0001513402445662697,0.00012727950503797246
-0.4675289713863358,0.43550789021718744,-0.2535571115320176,0.002469009838017431,0.08148321734635153,-0.028151583090789196,0.012940711305323972,0.007537972955067754,0.9651205867800571,-0.002158498227895317,-0.0003161887268200661,0.0005627873952551599
-0.5498326432238949,0.45054898658679987,-0.2078241324039095,0.06449777342234277,0.06343714617045598,0.04189378278576786,0.010651449930209783,0.007655467586382345,0.9628450150435609,-0.0023663223602992268,-0.000866021370043961,0.0010133363818419596
-0.6345859858239626,0.3720944892689424,-0.132008652464655,0.15176762014151318,0.11756923315510995,-0.03073636306534979,0.0200903599818407,0.012476427821501808,0.9609349865054777,-0.002498331012763882,-0.0015006073558679238,0.0013854308711109022
-0.5895148805919358,0.5154921095494013,-0.23415442560347355,0.14880157782342568,0.023217277106944156,-0.03292024332865768,0.02135650680685211,0.021786645467080906,0.964383890032113,-0.0027324854383673556,-0.0020901222364598593,0.0019009229806603034
-0.5597906884294742,0.4021201339179731,-0.058273447507287704,0.1634939123737998,0.014428814593848583,-0.08468007571937461,0.01855808940574945,0.020582149872010146,0.9583400878876296,-0.0027907588858746436,-0.002649912924889334,0.0023030431145782764
-0.5886718883278356,0.2885271115008741,0.07086684518301621,0.11351673112031763,0.0032552847237304946,-0.12153612581085606,0.008641986872880498,0.015767480625032693,0.9654112481195699,-0.0027198920406916274,-0.0032385848132171695,0.0025915702260791507
-0.5681427325042621,0.3197457901507192,0.09700855081594266,0.10499925701284914,-0.03496771528900621,-0.11571569360614971,0.017659087120678648,0.02451741406126351,0.9678414634530615,-0.0026228834898756846,-0.0038067275457214314,0.00291131601622987
-0.6031336712533504,0.2157439460780713,0.20288181873627645,0.11959097887369549,-0.007924056960867377,-0.08576118491976235,0.010998168921702581,0.015253516800082644,0.9651016005057707,-0.0024200016711394077,-0.004409861216974782,0.0031270599623079414
-0.48980671969732853,0.35444710552611336,0.1700953762499917,0.0932088614666989,-0.0088153333048939,-0.11949360879738767,0.02135545505205338,0.018114300352835344,0.9653704192287226,-0.002249906294889416,-0.0048996679366721104,0.003481507067834055
-0.39234215410916257,0.10471705916306398,0.28095260447768783,0.12940185990052125,0.008021201193563362,-0.14974257571107133,0.018496414631658117,0.014721303440948678,0.9654076299610624,-0.0019689536904117285,-0.005292010090781273,0.003586224126997119
-0.3743522541235806,0.06759191427704236,0.43988838712293266,0.1254942193458719,-0.022472417015514015,-0.11404565434397475,0.015323676677476755,0.013441915049590067,0.9605353630738253,-0.0015290653032887958,-0.005666362344904854,0.0036538160412741614
-0.24022899195813535,0.06683652794062542,0.22636725643557087,0.11987301791628568,-0.00045320349537115133,-0.14400519670335363,0.02058660638210534,0.015339901689761673,0.9694853886107757,-0.001302698046853225,-0.005906591336862989,0.0037206525692147865
-0.14342292648808277,-0.17695531653021984,0.37821942898360705,0.07021033127919209,-0.06150092444114257,-0.1099948291744911,0.018357166477660787,0.010566918505299876,0.9628467042330383,-0.0009244786178696177,-0.006050014263351072,0.003543697252684566
-0.20681479792428548,-0.1183323060615812,0.32583415943017857,0.05700318704652318,-0.11304155760727636,-0.139849562077844,0.023650136365487275,0.013725452796924723,0.9659401778184592,-0.0005986444584394391,-0.006256829061275357,0.003425364946622986
-0.05546623977995228,-0.21610023917880308,0.22437353934188087,0.06909765908312646,-0.0628005603417891,-0.02221943179838591,0.020926983079758512,0.013661893577587316,0.9700319510760039,-0.0003742709190975583,-0.00631229530105531,0.0032092647074441825
0.10269024888823743,-0.15238584539701022,0.33710043222551916,0.0037567984815535613,-0.06603014040163208,-0.06843962945003526,0.016828384861891022,0.013418958657799795,0.9659777974975423,-3.717048687203911e-05,-0.006209605052167073,0.003056878862047172
0.17636689307097547,-0.20727240029119065,0.10194523808432425,-0.10431599835301537,-0.02362019807135131,0.04624605252237755,0.0209410219379769,0.017138170070144627,0.9685087942667041,6.477475121228514e-05,-0.006033238159096097,0.0028496064617559817
0.25730187272008637,-0.31956471981277623,0.13490865421883538,-0.015674384241087767,-0.027505117691808804,-0.025105083859517076,0.015432729986870224,0.014743527242463944,0.9606682882948295,0.0001996834054311205,-0.005775936286376011,0.0025300417419432055
0.34626037757302824,-0.2886606316469915,0.02526241831037839,-0.12094940007236948,-0.08730998791451512,0.0713979534358996,0.014352108960333076,0.01708214646824524,0.9639969357911253,0.0002249458237414989,-0.005429675908802983,0.0022413811102962133
0.3284963002703056,-0.19238088353543592,-0.1516282183635431,-0.19177465997057397,-0.05288611692576253,0.062076028344778364,0.017513490810937674,0.015270178351152523,0.9642967007044376,7.331760537795582e-05,-0.005101179608532677,0.0020490002267607777
0.33821183210926065,-0.161907947671013,-0.10793560987783515,-0.16530817745288706,-0.01112930928851514,0.07662428528121303,0.014623726922645396,0.006827661759394109,0.9691385791431041,-3.4618004499879344e-05,-0.004762967776423416,0.001887092279089765
0.5058144481267,-0.319366876483929,-0.0717816957536524,-0.15722812686208062,-0.023043470356699697,0.12516750724314848,0.023944461971818248,0.014279817295976173,0.9605875981490685,-0.00010639970025353174,-0.004257153328296716,0.0015677254026058357
0.5040401630168315,-0.142303774408518,-0.11244900969463253,-0.17332836581713262,-0.04125913009725605,0.1493918022594779,0.010136626664452676,0.017118971999312383,0.9683218640040937,-0.00021884870994816428,-0.0037531131652798846,0.0014254216281973176
0.4640922593497254,-0.08014786725137266,-0.11574130741166463,-0.2486169038593271,0.03570734505494977,0.18553624955711479,0.012776186052629208,0.027885278923353338,0.9705962621498873,-0.0003345900173598289,-0.0032890209059301596,0.001345273760945945
0.5037710447084932,-0.17353127566269694,-0.2867030895188047,-0.20137476125063397,0.027354263586873456,0.17953368451419377,0.011227903560432713,0.015605429462706754,0.9639627105317532,-0.0006212931068786336,-0.002785249861221666,0.001171742485283248
0.41262907416848477,0.02729315398172035,-0.06511144688215309,-0.21626077903952676,0.06843613605297802,0.17153075283396507,0.01599282023833389,0.021898844640419697,0.9822161352690847,-0.0006864045537607867,-0.0023726207870531815,0.0011990356392649682
0.555318892578076,0.037642134750158894,-0.22484739858838357,-0.1661432222212496,-0.0009530216016828711,0.19298351064755803,0.01588314964010282,0.00904446617373879,0.975863726262045,-0.0009112519523491703,-0.0018173018944751052,0.0012366777740151272
0.5192160946509683,0.10248903412201374,-0.1189044519984045,-0.15382208872783423,0.05921845082034549,0.12010304091206656,0.018421702384923404,0.02058098525100079,0.9690379577008135,-0.001030156404347575,-0.0012980857998241369,0.001339166808137141
0.5562058762983856,0.15962862396859323,-0.007451992734104823,-0.15082501120358088,0.0021172586275841135,0.17416346743053748,0.02158910745039454,0.021892759163757214,0.9633399141380684,-0.0010376083970816796,-0.0007418799235257513,0.0014987954321057343
0.40976761835006437,0.20539790884683268,-0.16699940162595658,-0.10839315115009848,0.09084541683397589,0.1631088796653985,0.02259870182025853,0.01551325146602323,0.9662931923256903,-0.0012046077987076364,-0.00033211230517568693,0.001704193340952567
0.4843863015858292,0.19994808933603933,-0.041643456301151065,-0.04568070683614245,0.051795734703688034,0.09776731287074335,0.01345441674748356,0.01449286086854602,0.9641030021274348,-0.0012462512550087872,0.0001522739964101423,0.0019041414302886064
0.42167115913395453,0.41952428377473816,0.009726674216529386,-0.03511044270507358,0.03828921257061777,0.05672269233113244,0.02081627433789074,0.015047429881937488,0.9701668463742475,-0.001236524580792258,0.0005739451555440969,0.002323665714063345
0.35051022132948645,0.1883604077901969,-0.0012351941460948465,0.039713436583950684,0.03099999497400269,0.01956718590795422,0.006743954028611729,0.022779247765928205,0.9684231803229426,-0.0012377597749383528,0.0009244553768735834,0.0025120261218535417
0.3069798829061132,0.31094670877583874,0.07116949480145593,0.07120772327230741,0.04645265174531571,-0.05704878967130384,0.013216359154079989,0.023435796890066384,0.9715859584976237,-0.0011665902801368969,0.0012314352597796966,0.002822972830629381
0.1724617717296972,0.16958958499625554,0.13123178434214638,0.06636280060175676,0.059448818038878776,-0.02178050851728721,0.012749311676904263,0.024289175686581774,0.9704619028603287,-0.0010353584957947504,0.0014038970315093937,0.002992562415625636
0.26311669177463815,0.18929379728372356,0.11352303343797773,0.1548940933263873,0.06532509507985336,-0.052158715221611744,0.017525035851740714,0.026609072413531443,0.9648398493319796,-0.0009218354623567727,0.0016670137232840318,0.00318185621290936
0.11423155414015781,0.24492419241003155,0.1954802558071751,0.19800512821028793,0.035469363665033296,-0.07744996324075573,0.015058289146832228,0.012882703434609474,0.9592909588869589,-0.0007263552065495976,0.0017812452774241896,0.0034267804053193917
-0.1126689116973882,0.21699412272644877,0.09607387419716107,0.22725817263963655,0.03403201912620171,-0.08307118414940239,0.013940656586897344,0.005706207719179466,0.971440907370395,-0.0006302813323524365,0.0016685763657268014,0.0036437745280458404
0.01651418284064718,0.13657227270758604,0.23060161922915834,0.21969469166916172,0.009978915787859331,-0.08499951434770057,0.012361800690870003,0.00930883441264114,0.9664730242208105,-0.00039967971312327815,0.0016850905485674486,0.0037803468007534258
-0.0374293876422218,-0.026991798476790882,0.15697658887231367,0.237264606324104,-0.023496963989856144,-0.06542963807779265,0.01233931633045516,0.01640301285012942,0.9645145119477601,-0.00024270312425096445,0.001647661160925227,0.0037533550022766354
-0.16583016427627753,-0.02044577341339969,0.23426318245355535,0.31335025717731724,-0.00028503887004476414,-0.10131736880376022,0.02177334162436256,0.014513805293029161,0.9657411572401118,-8.43994179740909e-06,0.001481830996648949,0.0037329092288632356
-0.29185056876019255,-0.005394750847823551,0.073365692020296,0.1918579251493728,-0.04585845154366886,-0.0928809848341893,0.03563445679037581,0.020649678483089875,0.9667024808010792,6.492575022288691e-05,0.0011899804278887567,0.0037275144780154128
-0.24733088291702934,-0.14232095525201638,0.12623738199509657,0.27682987683384075,-0.05738094116647317,-0.04669226735452494,0.017101149922772094,0.02413758758854666,0.9676999894185985,0.00019116313221798347,0.0009426495449717274,0.0035851935227633963
-0.18631794312113256,-0.15233819109087707,-0.003986765707851319,0.2390249571386072,-0.06521463359209134,0.0023541749365583575,0.014588116968957829,0.028832088454994145,0.9632480808330394,0.0001871763665101322,0.0007563316018505948,0.0034328553316725187
-0.2692052870408209,-0.2653364322726815,-0.05367459321001811,0.18362625059686633,-0.09514903647470717,0.03035852713808116,0.015096163149406955,0.026669421144939427,0.9751435112478528,0.00013350177330011408,0.0004871263148097739,0.003167518899399837
-0.42772014116644824,-0.34898743113100983,-0.03869350150631627,0.15659957178722708,-0.05464996738856425,0.01188632098968013,0.026033834622383033,0.017673079622689734,0.967016033605415,9.48082717937978e-05,5.940617364332562e-05,0.0028185314682688273
-0.27382614593691945,-0.3681485400882955,-0.2966860983216962,0.09165634641444093,-0.09327970050350894,0.019347643575454418,0.012731943795543498,0.02619085440053761,0.9667970852638876,-0.0002018778265278984,-0.00021441997229359384,0.002450382928180532
-0.32864109365462535,-0.5405555469010171,-0.26611840563801625,0.09288487204188241,-0.06651705299784859,0.08466436375880848,0.018671356499242793,0.025782736528652636,0.9708815925027305,-0.0004679962321659147,-0.0005430610659482191,0.0019098273812795147
-0.43868347754501014,-0.611290394907261,-0.19200397056877205,0.0770019836292028,-0.12121137296310855,0.06587350859755332,0.02267415792496429,0.021635580942789164,0.9543299195440628,-0.0006600002027346868,-0.0009817445434932293,0.0012985369863722537
-0.23782061320839779,-0.42625550101490856,-0.2631179956346675,0.07189399503306249,-0.14865721136582227,0.009083845293494637,0.019671262455872376,0.013707433816376645,0.9705543111540543,-0.0009231181983693542,-0.001219565156701627,0.0008722814853573451
-0.17161144229368458,-0.4625272608357713,-0.35337592811021745,-0.05744635138781493,-0.07632836478378267,0.06982360559446578,0.018533083629603087,0.01591963815533863,0.9680907858705653,-0.0012764941264795718,-0.0013911765989953117,0.00040975422452157377
-0.3176756619920288,-0.4044916916190839,-0.3155382367586733,-0.04729042467740148,-0.11773442156239261,0.10284063639733237,0.019220319664963917,0.020899317772290173,0.9709327026319298,-0.001592032363238245,-0.0017088522609873405,5.262532902489903e-06
-0.22359325628106386,-0.3761334899468651,-0.4113630331743516,-0.0392540533249275,-0.055419543805140414,0.024304650462527812,0.016641367766932695,0.024685666498656014,0.9617825347421104,-0.0020033953964125966,-0.0019324455172684042,-0.0003708709570443752
-0.14461828934404763,-0.3771370190993337,-0.16448816772078506,-0.04203788678549137,-0.07845343672415564,0.10141590903441451,0.021592429530735077,0.023359130049465975,0.962953527146876,-0.0021678835641333817,-0.002077063806612452,-0.0007480079761437089
-0.02397858044907245,-0.20991150118728114,-0.3194451142350319,-0.15688513422449468,-0.09210958104512118,0.09401917077256615,0.0190494759513489,0.017781011936436112,0.9646149971848572,-0.002487328678368414,-0.0021010423870615243,-0.0009579194773309901
-0.09506176954494727,-0.2089120540042192,-0.2827099265193844,-0.1181203786120739,-0.07419407192291966,0.09397755455443554,0.02389754150904072,0.0146402977463586,0.9640750832445417,-0.0027700386048877985,-0.0021961041566064712,-0.0011668315313352092
0.11162985287491103,-0.17593959065052542,-0.19107992261925125,-0.0848779943257394,-0.04655778544576695,0.07082616455780441,0.021037564609460747,0.023663763074183306,0.9681256896933731,-0.0029611185275070498,-0.0020844743037315605,-0.0013427711219857349
0.15342778668824553,-0.1334874124127842,-0.09851209396290486,-0.10860403493614362,-0.023873379391769724,0.06725294443252751,0.019234696917270484,0.02203115753663005,0.9610537393984964,-0.0030596306214699543,-0.0019310465170433153,-0.0014762585343985192
0.17084250886406224,-0.10107200260567513,-0.024890086699858156,-0.08035310820235224,0.010256199778911429,0.08712875422197851,0.013794876177686545,0.017977280156356575,0.9783740970651618,-0.0030845207081698126,-0.001760204008179253,-0.0015773305370041944
0.22649613682710454,0.07417490736954009,0.059235110141766426,-0.0826432373596694,-0.00994210664916334,-0.014969228818782857,0.01735281011941683,0.023927745632421133,0.9755896356647902,-0.0030252855980280463,-0.0015337078713521485,-0.001503155629634654
0.19185058905807423,0.29313193668459775,0.21282256125111876,-0.1404365142374612,-0.00647240995160422,0.03771653678678849,0.017824964373605548,0.021660188040246588,0.9650203587148196,-0.0028124630367769277,-0.0013418572822940743,-0.0012100236929500565
0.37852515628082556,0.25491172073204804,0.23803637586936688,-0.10613255361710186,0.02860960172048303,-0.05621126201433071,0.02145918945619752,0.028441525327253685,0.9622010027001259,-0.0025744266609075608,-0.0009633321260132486,-0.0009551119722180084
0.3898271532941547,0.2706773759667329,0.18179733887523755,-0.02113764999773992,0.009328210273329116,-0.060246887969448625,0.02709372423216877,0.02150048801144907,0.9716471095621892,-0.002392629322032323,-0.0005735049727190939,-0.0006844345962512754
0.3199172640737729,0.27404978784139833,0.22160276051937725,-0.03415059665580265,0.04583637414489153,-0.045756368675010345,0.02843569611567455,0.03462505361289519,0.9763202920680644,-0.002171026561512946,-0.000253587708645321,-0.000410384808409877
0.25258667332133733,0.39051102253492687,0.15229166807530944,0.06110078844401128,0.09034378739365219,-0.06988917678819818,0.01913471532659666,0.029399261170476157,0.9736461955609895,-0.0020187348934376367,-1.0010353239837122e-06,-1.987378587495015e-05
0.38914430810909983,0.46243760792739635,0.3608525359910416,0.05515906819560807,0.11100250096774883,-0.1262229246802778,0.017954044372873068,0.020118710034856074,0.9676549219587881,-0.0016578823574465952,0.00038814327278511614,0.0004425638220524463
0.27328998057662646,0.4331077164731662,0.2587595674509998,0.05734507050889446,0.0920591616391192,-0.12845109100972105,0.009211274098943007,0.028745375078246406,0.9618219080117445,-0.001399122789995595,0.0006614332533617426,0.0008756715385256124
0.2394983355519634,0.35144273026080386,0.30966933760311416,0.08046663143522689,0.0877220837109315,-0.12535361274123372,0.020080814024222234,0.023796105780035402,0.9673198440481023,-0.0010894534523924809,0.0009009315889137062,0.0012271142687864164
0.2657263267077199,0.34166861066340265,0.18820293172408042,0.15707170623545433,0.1542515885123984,-0.1443507701075731,0.012159298643139332,0.031115350892725855,0.9739618599422362,-0.0009012505206684005,0.001166657915621426,0.001568782879449819
0.22079132674472995,0.3438331111337735,0.1571739847415622,0.12139644294609495,0.1020457068862105,-0.14050446025408644,0.015732390332311018,0.03208015373012476,0.972675235071737,-0.0007440765359268383,0.001387449242366156,0.0019126159905835925
0.14493915974479707,0.34939970071246657,0.31270647387039296,0.104832100825671,0.06309300402937781,-0.1679904768722726,0.025373966927109443,0.02236434848594485,0.9691573098140058,-0.00043137006205644525,0.001532388402110953,0.002262015691296059
0.08850398356813301,0.26468158567880445,0.14952949742873303,0.13705231201262078,0.14152584882687755,-0.09348480124115428,0.017348189495913154,0.023522731079921783,0.9597312159678951,-0.00028184056462771226,0.0016208923856790862,0.0025266972769748637
0.028546973817480864,0.27196335347991657,0.034688274856947435,0.16628232805585694,0.10992806074853985,-0.08051677618080895,0.022649399072748225,0.02857080891022705,0.9696850257218848,-0.00024715228977076483,0.001649439359496567,0.00279866063045478
-0.09052553280590764,0.2764967144096838,-0.0023648312204177157,0.13769538511873175,0.05061843033081206,-0.04944000686871764,0.01742131913226017,0.029310696081376805,0.9661371462014375,-0.00024951712099118256,0.0015589138266906594,0.0030751573448644636
-0.00629966223984009,0.07403721231321417,-0.013552016786091414,0.09434443555215255,0.05189937160222134,-0.046949014294849746,0.013667274781151793,0.021949109364587015,0.9711079775081651,-0.00026306913777727396,0.0015526141644508192,0.0031491945571776783
-0.14686256667478712,0.10177117275312433,-0.11953776565610952,0.09304644360250414,0.05617189760353179,0.012620670861287315,0.018184019928713012,0.027437315418280477,0.9690265998116794,-0.00038260690343338346,0.001405751597776032,0.003250965729930802
-0.23949689903431992,-0.006247629940359141,-0.19707223978668867,0.07816725034853661,-0.014843468872768136,0.0538438891735701,0.01839494070635327,0.030645944954309865,0.9773997186339625,-0.000579679143220072,0.001166254698741712,0.003244718099990443
-0.18802946914552204,-0.18183264970221846,-0.340676043807866,-0.018487451329672083,0.017604282515683304,0.008274462053839705,0.027487710795073395,0.02505001922036939,0.9714183420287996,-0.0009203551870279381,0.00097822522959619,0.003062885450288225
-0.24408307055487385,-0.11630704614649738,-0.25589959538779466,0.08941481575480938,0.0024078252031525154,0.08453472937269926,0.020278599013904,0.027729156157296517,0.9647467803874624,-0.0011762547824157327,0.0007341421590413162,0.002946578404141728
-0.37637330948115516,-0.17950478062956962,-0.24818649651228997,-0.018165614981004413,-0.03214443143722374,0.1300323249579402,0.023019591311997926,0.025575835814372325,0.9661494814979673,-0.0014244412789280229,0.00035776884956016094,0.0027670736235121587
-0.4938342311555347,-0.29609847668733547,-0.2545117473438627,-0.045501869206116326,-0.04379508344284267,0.13930170362448632,0.02088171496683195,0.018609468614325712,0.9691060874653532,-0.0016789530262718854,-0.00013606538159537378,0.002470975146824823
-0.43278134919929123,-0.28234772422613935,-0.2139641497633646,-0.0699865876686918,-0.033548155044555064,0.11333610426759694,0.0218558708490564,0.030237956751616852,0.9651881689438396,-0.0018929171760352502,-0.000568846730794665,0.0021886274225986833
-0.4365654913395456,-0.30538056912263617,-0.040570433774506046,-0.12022027561250999,-0.011726642920969027,0.13912825681899768,0.014409684419542542,0.03139145180139464,0.9611072145826741,-0.0019334876098097563,-0.0010054122221342106,0.0018832468534760475
-0.5597318287906429,-0.33103916586618454,-0.0996817879001595,-0.1757354949054769,-0.07568225907242301,0.14740512871288103,0.020773146232987847,0.025322575839266996,0.9803410072172426,-0.002033169397709916,-0.0015651440509248536,0.001552207687609863
-0.49605746419967356,-0.19972716528515969,0.012588255961296285,-0.2106998990584381,-0.10628042541839788,0.181168911535291,0.01207422631922045,0.028955060131458665,0.9645500814061551,-0.00202058114174862,-0.0020612015151245267,0.0013524805223247031
-0.6500846843550478,-0.2271993981910308,-0.0496732647551321,-0.18762796939819326,-0.10513678209385818,0.18026330745791605,0.017874354998914946,0.024606596594319373,0.9820687355588089,-0.0020702544065037513,-0.0027112861994795746,0.0011252811241336724
-0.5363036634472454,-0.14504442767470999,0.03790949691467013,-0.1876145816960934,-0.08208945413533841,0.14612755210350956,0.022587091820443255,0.02994619862452099,0.9678218979281777,-0.002032344909589081,-0.00324758986292682,0.0009802366964589623
-0.47553545990312385,-0.23498353889891704,0.1076256718614774,-0.23719253835986326,-0.07408960936615092,0.1418789402036419,0.021893051360126828,0.02705472577176737,0.9624334020795697,-0.0019247192377276037,-0.0037231253228299436,0.0007452531575600454
-0.5733737080060842,-0.2112525729377273,0.09962330644827397,-0.21777193541187426,-0.0435991174427779,0.09966730855758972,0.021073119779499935,0.028462192957802824,0.9694125366835334,-0.00182509593127933,-0.004296499030836028,0.0005340005846223181
-0.4917642920390046,0.04953891465729651,0.30511348870402977,-0.24482594191612161,-0.04186679794524542,0.08328608250561409,0.018625155882851567,0.03549808860350302,0.9683348160525239,-0.0015199824425753002,-0.004788263322875033,0.0005835394992796147
-0.42807990787418043,0.14741563831616836,0.23131931898718167,-0.1666596973016695,-0.07107482974330918,0.07460499340424334,0.02333405936728039,0.022377695042106252,0.9720422516522162,-0.0012886631235881187,-0.005216343230749213,0.000730955137595783
-0.313909721803296,-0.02927040363265357,0.13627528317500703,-0.1659266090861906,-0.07270346365044059,-0.0007284394417872101,0.015957587886054347,0.02942455182893061,0.9698494563796735,-0.0011523878404131117,-0.0055302529525525085,0.0007016847339631296
-0.37282790407240224,0.0671893247419108,0.21548015868708043,-0.15009708207429126,0.012556409004053037,0.017944970790015162,0.02041768398011556,0.03442128274772524,0.9638729768149967,-0.0009369076817260313,-0.005903080856624911,0.0007688740587050403
-0.04463703057118948,0.25000967781052363,0.10897903522282484,-0.08987728884369121,-0.06137575811564525,0.007667789970143073,0.019955683239299995,0.03109520311039731,0.9695844233016768,-0.0008279286465032063,-0.0059477178871961,0.001018883736515564
-0.12198395633506143,0.15523759090968517,0.1607923521861302,-0.12014196638457228,-0.0836124543570236,-0.07047264187516906,0.029510353372160174,0.028556274038825893,0.9657192845989349,-0.0006671362943170762,-0.006069701843531162,0.0011741213274252492
0.013632413626173984,0.21241138930304138,0.08425077463317479,-0.06583179580706608,-0.011523348206989477,-0.06965224921960607,0.023316331789929378,0.02707343483480566,0.9680198359250983,-0.0005828855196839014,-0.006056069429904988,0.0013865327167282904
0.04370285677198657,0.21066651417763907,-0.005316973796389332,-0.07237455375319607,0.018261623755010153,-0.1297817556072972,0.02841663390484654,0.023935143924048552,0.969452631889618,-0.0005882024934802907,-0.006012366573133002,0.0015971992309059297
0.2767159465240996,0.1396244151666091,-0.044418589835013574,0.04676529468769822,0.048219576205182614,-0.016939111018656486,0.01661191196488945,0.03176003117977162,0.9704902864911992,-0.0006326210833153042,-0.005735650626608902,0.0017368236460725388
0.1591943415230212,0.328846035266558,-0.13657463344683682,0.0439644017104094,0.016843940411643454,-0.005667263716145102,0.023368986970541586,0.03286874062031655,0.9616290174584717,-0.0007691957167621411,-0.0055764562850858825,0.0020656696813390967
0.398477757455988,0.21904116877148128,-0.0008054781410304634,0.14405336282411793,0.050140551360287486,-0.05130324285180068,0.03126087764705532,0.016086831671859717,0.9631034371610754,-0.0007700011949031716,-0.0051779785276298935,0.002284710850110578
0.402657362269099,0.2192087037901546,-0.2053717951591416,0.16455930337186625,0.07050869961332328,-0.08152788714805453,0.017859475608453954,0.02619768134870166,0.9729777043414374,-0.0009753729900623131,-0.004775321165360794,0.002503919553900733
0.4860728158826685,0.2494656399643757,-0.3253533668502865,0.2087901226820569,-0.01300559188660922,-0.04829909012899818,0.013379861540800151,0.03490059705580618,0.9719272131821691,-0.0013007263569125996,-0.004289248349478126,0.0027533851938651085
0.6097263452437195,0.09060428808948148,-0.26698200180485065,0.18863375169388352,0.09667407104140957,-0.083678847372072,0.01686409019830741,0.027907954087398767,0.9756385302849468,-0.0015677083587174502,-0.0036795220042344064,0.00284398948195459
0.624177197200979,0.0003815126213464609,-0.42635185077110077,0.23323491076836964,0.04022881265681853,-0.058617050270792885,0.014559454098457193,0.030263009804559166,0.9653671402400601,-0.001994060209488551,-0.0030553448070334277,0.0028443709945759365
0.6503144076658116,0.001027940597312347,-0.3002227696008437,0.22891052821602054,0.10097416192562311,0.022139893287526004,0.02417353346051207,0.02535596321844618,0.9800688710092258,-0.0022942829790893945,-0.002405030399367616,0.0028453989351732486
0.6260302242394915,-0.04586387783895799,-0.2917640114893017,0.21030222473119403,0.06972980556884503,0.0001337236697282699,0.03282521534530501,0.024570151806881563,0.9603432204121526,-0.002586046990578696,-0.0017790001751281247,0.0027995350573342907
0.49701093956939285,-0.08281037179788123,-0.2280901452631957,0.2202864397419987,0.02938824991603453,0.06828912146036971,0.02181723402134372,0.03051661594676907,0.9739363095827714,-0.002814137135841892,-0.0012819892355587315,0.002716724685536409
0.5187136391028817,-0.16567813286124222,-0.14499631345755087,0.1820115597057415,0.057545391049300156,0.03485039299440508,0.019254438849715134,0.028715015199868663,0.9769457960284705,-0.0029591334492994428,-0.0007632755964558498,0.0025510465526751673
0.49708721857116955,-0.3082923306630303,-0.23127916061962342,0.19921739022499313,0.006968038809521998,0.07847548069533555,0.020082131908563085,0.036519806909849684,0.9687974819360544,-0.0031904126099190663,-0.0002661883778846802,0.0022427542220121366
0.45752551657956486,-0.497256290561246,-0.04649037042275031,0.17278228711918467,-0.006955544350576041,0.08592288683608891,0.021108362069530175,0.039345796348037934,0.9666028054777722,-0.0032369029803418167,0.00019133713869488468,0.0017454979314508905
0.4799027969244916,-0.3373589349675486,-0.19836817931220532,0.14379707591245414,-0.016118280418260335,0.063996996575358,0.03306129046590264,0.029188953334754814,0.9712287415264075,-0.0034352711596540215,0.0006712399356193764,0.001408138996483342
0.47305304227549166,-0.39440854140101594,0.02461528386985133,0.13337687400042433,-0.015633429626334114,0.09753671918105049,0.02060700532673047,0.031150747571455598,0.9702827394881572,-0.0034106558757841703,0.001144292977894868,0.001013730455082326
0.5181229936494803,-0.36075811912771577,0.01931574550118649,0.07568500221561177,-0.026253222242012094,0.14378969208790973,0.02617745031308944,0.02642900940078473,0.9688625931275227,-0.003391340130282984,0.0016624159715443482,0.0006529723359546103
0.3182111271089517,-0.525453932642538,0.05608443938732007,0.053935500001411806,-0.04590147282206723,0.15710056547873874,0.021957906338648872,0.04105008018547906,0.973127936728571,-0.003335255690895664,0.0019806270986533,0.0001275184033120722
0.25323915550861675,-0.4435602822682546,0.03908016488387067,0.03686916979133823,-0.013188379342877931,0.12052899741810533,0.020640465702552784,0.03744855496261063,0.9798630710768137,-0.0032961755260117933,0.002233866254161917,-0.00031604187895618245
0.16152431231363082,-0.5681462352735871,0.32035517588570556,-0.030433355273834048,-0.10191744212060284,0.08290303852686194,0.023095021826857843,0.03798812858699886,0.9701000239254723,-0.0029758203501260875,0.0023953905664755477,-0.0008841881142297696
0.18294056288848104,-0.333781977821934,0.24749514954542443,-0.07202724373911681,-0.04461827177900503,0.07989969455157706,0.015431654445090974,0.03133672508892054,0.9732601775455187,-0.0027283252005806634,0.002578331129364029,-0.0012179700920517036
0.1725000223218818,-0.37437111519381505,0.26388020726560546,-0.05364904142511624,-0.12956276235047945,0.04069531088622067,0.025296968614326364,0.03448346497104228,0.9802676647544504,-0.002464444993315058,0.002750831151685911,-0.0015923412072455182
-0.03432713271644771,-0.2957768915682797,0.26126630370028603,-0.08746002791166121,-0.07903012915333844,-0.019458094517321473,0.020213454957821366,0.027046763334837638,0.9743936365636481,-0.002203178689614772,0.002716504018969463,-0.001888118098813798
0.014014841976055292,-0.17039947839391315,0.4846579534156784,-0.0789764973592508,-0.12242802965716208,-0.004074154249407604,0.02187083869442839,0.038683275631841305,0.9818773481326435,-0.0017185207361990935,0.002730518860945519,-0.002058517577207711
-0.318361720520931,-0.168798160436769,0.3426196739978427,-0.1580878431009061,-0.1644902286636021,-0.06777978646722833,0.021103021128349487,0.026779662373353094,0.965510892469469,-0.0013759010622012508,0.002412157140424588,-0.0022273157376444803
-0.1156461325847935,-0.18532070460332023,0.30090402802487787,-0.10300960859019212,-0.07008776037598939,-0.12251342406892406,0.011009308506130647,0.03514219781625875,0.9649781073713098,-0.0010749970341763732,0.0022965110078397946,-0.0024126364422478
-0.288541830128877,-0.04639029655859207,0.2268975678748397,-0.09627614652582599,-0.1557113830536132,-0.10045807330622,0.0199848307933453,0.03328823352943829,0.9636495741851083,-0.0008480994663015335,0.0020079691777109172,-0.0024590267388063924
-0.35820917227616106,0.05657446046296486,0.1746443066984116,-0.1142452880109852,-0.06343082624379844,-0.1452418472270563,0.01844838160708033,0.03533909959324768,0.97549226702929,-0.0006734551596031218,0.0016497600054347563,-0.0024024522783434275
-0.39577530137341527,0.08836231544554184,0.1542728924904836,-0.10477534244759519,-0.05099115934857212,-0.11389714335766256,0.028368847195154673,0.040427040038055126,0.9685513771772571,-0.0005191822671126382,0.001253984704061341,-0.0023140899628978856
-0.32051507089291864,0.24171973476566916,0.0951946037758109,-0.0871736881792848,-0.05976519153523688,-0.12852671292676973,0.014893478746512832,0.03233434313990867,0.9759948549044761,-0.0004239876633368273,0.0009334696331684222,-0.0020723702281322163
-0.3153914590780055,0.37963978378297947,0.014443261287051569,-0.08133715919798147,-0.07976045807429055,-0.1105446364829203,0.018852012426064452,0.03624688680801721,0.9702578821648883,-0.00040954440204977565,0.0006180781740904168,-0.0016927304443492372
-0.23555799133583588,0.31625746192145776,-0.05921762630520623,0.003910812056171125,-0.06376916945687133,-0.12206443945268229,0.01503282119647487,0.032599345262203594,0.973220410482925,-0.00046876202835498195,0.0003825201827545808,-0.0013764729824277794
-0.38507194596741223,0.30793422847786583,0.05748042614420318,0.005401665872850929,-0.029900429251676224,-0.18006880948690604,0.02644075663096283,0.035042042041033415,0.9665266834850333,-0.00041128160221077874,-2.5517632128314596e-06,-0.0010685387539499135
-0.325272336293344,0.44613422839994715,-0.10909591155863502,-0.02298556903452358,-0.09798899048132187,-0.14040000488378615,0.01300791174428393,0.031359629395340115,0.9780486859534719,-0.0005203775137694139,-0.0003278240995061755,-0.0006224045255499662
-0.25425550492262405,0.31468499456560384,-0.15622538058504326,0.06077518532937764,0.03281590450358348,-0.07750656806013229,0.021401138118222113,0.0340935736895877,0.9681768499357084,-0.0006766028943544571,-0.0005820796044287995,-0.00030771953098436235
-0.2955440082481468,0.4532871514543191,-0.13856316731714322,0.12242791946223576,0.0015234010408965593,-0.06884051302677285,0.02350268305074566,0.0315693696377306,0.9798213574331123,-0.0008151660616716003,-0.0008776236126769463,0.00014556762046995676
-0.30658622135464375,0.41378315326057147,-0.23242027651528996,0.08193063080844185,0.03281433429470604,-0.05071576546868456,0.02240136191649648,0.031556189199386506,0.9700052851015158,-0.0010475863381868905,-0.0011842098340315902,0.0005593507737305282
-0.09244743057928764,0.34750139595481183,-0.1600458015256207,0.1601766833118915,-0.002484328041120157,-0.01793632770360197,0.022532674934355366,0.03494586345976909,0.9710383246326463,-0.0012076321397125112,-0.001276657264610878,0.00090685216968534
0.09744685218909996,0.4204570647276575,-0.22822715045625358,0.17834461659183165,0.05244806181943361,-0.026263491948197305,0.02401732856483275,0.03230666910634084,0.9730816148207939,-0.001435859290168765,-0.0011792104124217781,0.0013273092344129975
0.05831798171247582,0.317473576370443,-0.19838212886032536,0.11949061614737586,-0.0026190793858395685,0.021833539664795044,0.02024293867998755,0.03201098542192097,0.9746607411905648,-0.00163424141902909,-0.001120892430709302,0.0016447828107834406
0.03937305917846021,0.18156250125461676,-0.08414099068448025,0.15466333946631972,0.10533184768380888,0.07181698832988817,0.024876925034383456,0.04359877886145552,0.9769516987368272,-0.0017183824097135706,-0.0010815193715308419,0.0018263453120380573
0.06629433966584053,0.21477104260589172,-0.01133969733296325,0.1257394771985757,0.056758362175219644,0.07146495012960868,0.023768004315348486,0.034967803919186434,0.9695847413244928,-0.0017297221070465337,-0.0010152250318650015,0.002041116354643949
0.18286664931895294,0.29226313568758294,-0.04123822826011031,0.18962351590734894,0.03280579456817236,0.12791387042613556,0.018090192577447095,0.02947268043200555,0.9703212455981507,-0.0017709603353066438,-0.0008323583825460484,0.002333379490331532
0.25311210134810175,0.08775223615554274,-0.14218950714313136,0.1570901556611432,0.09013705077364448,0.15849577637841403,0.020317224863230746,0.03079686532301561,0.9707359222517773,-0.0019131498424497754,-0.0005792462811979466,0.0024211317264870753
0.1539196652079114,-0.006509312863427576,0.09988917745857374,0.043429277437061965,0.16036206129942784,0.14231160669995707,0.026720892249573084,0.0403346412455609,0.9685010712160872,-0.0018132606649912016,-0.0004253266159900352,0.0024146224136236474
0.2443958958594648,-0.05735816555842082,0.20369906263191678,0.04092502906174233,0.13833079505162085,0.1928888246141831,0.025440880006583705,0.040907798327519264,0.9745589055445795,-0.0016095616023592847,-0.00018093072013057045,0.0023572642480652263
0.2662792927759873,-0.1353364254203536,0.1137469959038898,0.06522390514630519,0.07323439056677522,0.18410683252174223,0.02598921051714506,0.04078781796455609,0.9687453408852004,-0.001495814606455395,8.534857264541684e-05,0.0022219278226448726
0.24455053551777287,-0.15309092306155966,0.180225822314201,0.040134570259565294,0.042089188363437544,0.16980522742489948,0.022970522026431787,0.04038781615740725,0.9723618754500147,-0.0013155887841411942,0.0003298991081631897,0.002068836899583313
0.2984758378699478,-0.14898436805199528,0.23970649981487935,-0.015214411605869841,0.09213824453370754,0.18505433193091397,0.027804445030872996,0.03598716105992782,0.9774993127917034,-0.0010758822843263145,0.0006283749460331375,0.0019198525315313178
0.4056753232670587,-0.18807251449172477,0.11945696168027144,-0.08479381613575296,0.07633155882006733,0.12240337312048626,0.030392772592949258,0.032645863175495816,0.97534262272186,-0.000956425322646043,0.0010340502693001962,0.0017317800170395929
0.34511348555468974,-0.36788488301722355,0.13344838693378347,-0.08006656294349965,0.0016485382368541567,0.1404534002659393,0.012019954924683569,0.038464810622850516,0.9711915343580257,-0.0008229769357122597,0.001379163754854886,0.0013638951340223691
0.3323004825258818,-0.3965197333770143,0.23446061225990777,-0.11728302041215216,0.06646265238932839,0.13461119125545998,0.025680832475436295,0.03170339363041054,0.9800633676510452,-0.0005885163234523519,0.0017114642373807676,0.0009673754006453548
0.40260371125035654,-0.2504289754046554,0.1040224575329996,-0.21310155297896635,0.016488197510047164,0.05806142377877226,0.02040644682052118,0.03612462091625917,0.9713369519759552,-0.0004844938659193523,0.0021140679486311245,0.0007169464252406994
0.2155962836305551,-0.37958766983515935,-0.0033963129821980437,-0.16342108653911136,0.06028470943596402,0.08855331509269611,0.021055741855446335,0.03991573118011431,0.971664241748539,-0.0004878901789015503,0.0023296642322616795,0.00033735875540554005
0.28801585204560554,-0.24688945853564376,0.030714619840630668,-0.19869255118400134,0.005223961800862506,0.05488571193916044,0.020807512162190053,0.035757035448040264,0.9803290679583382,-0.00045717555906091967,0.002617680084307285,9.04692968698963e-05
0.14039024649867163,-0.20061668086319862,-0.11444948504035697,-0.20683501106564686,0.01900967875823389,0.0017204899184160034,0.020405244216540032,0.031633945153136736,0.9823620662115491,-0.0005716250441012765,0.002758070330805957,-0.00011014738399330233
0.1373681820164041,-0.058964711140235965,-0.0664695914358765,-0.21682343439307328,-0.013027623478107729,-0.07234274179727154,0.02206532860251177,0.03379820540511715,0.96808194208992,-0.0006380946355371531,0.0028954385128223607,-0.0001691120951335383
-0.0036064565470775786,-0.0672739425929486,-0.21744776390889697,-0.21415236576029467,0.00039353996747832406,0.002236715279676482,0.018428587188286064,0.0393159018191821,0.9854965464540223,-0.00085554239944605,0.0028918320562752835,-0.0002363860377264869
0.004579986638132201,-0.14766985119985127,-0.2619712411696079,-0.1647071887453453,-0.09857135711833405,-0.03875067498603088,0.018750521110562406,0.04178661089656639,0.9738069648440278,-0.001117513640615658,0.002896412042913415,-0.00038405588892633815
-0.041643349985199155,-0.018063582166100677,-0.245002689608539,-0.15862809510330744,0.0020325093094831536,-0.08886951108639175,0.014629285444271443,0.04466085697165646,0.9749118334303695,-0.0013625163302241972,0.0028547686929282163,-0.00040211947109243876
-0.13725645281092433,0.07045991050024852,-0.2997444357081654,-0.20885966425706184,-0.07035598760394483,-0.08172535554410787,0.016359811741970556,0.029262772772743025,0.9767382042458185,-0.0016622607659323625,0.0027175122401172924,-0.0003316595605921903
-0.3812260284436701,0.06104052567010976,-0.26240122579331837,-0.14152578074787614,-0.048362123992576465,-0.08825786885401553,0.01813638732836044,0.0315947347287578,0.9721628805697963,-0.001924661991725681,0.002336286211673622,-0.0002706190349220805
-0.27757161621364257,0.07300467136503569,-0.23965395591137195,-0.06785165364268216,-0.02106988644072105,-0.15466235652745597,0.017507184499844078,0.036347053740065256,0.9683782183135461,-0.0021643159476370526,0.002058714595459979,-0.00019761436355704486
-0.334508093718818,0.26339997039063945,-0.3898990594954323,-0.05998104924223977,-0.05522179114529951,-0.09796412211956622,0.012532752765563383,0.034147556822610406,0.9797020197381893,-0.002554215007132485,0.0017242065017411613,6.578560683359464e-05
-0.41869360478244255,0.16948403696536007,-0.2879600553361998,0.013687304480106494,-0.06868305904019194,-0.08942434267522673,0.01648021775081824,0.04808769773974261,0.9649878113739044,-0.002842175062468685,0.0013055128969587187,0.0002352696437989547
-0.580777879399495,0.2471640408620444,-0.24361149088772915,-0.017739272656116592,-0.02763778714014825,-0.043508952751777984,0.026793387312003626,0.03341598472021912,0.9724347696785518,-0.0030857865533564137,0.0007247350175592237,0.00048243368466099917
-0.5218477945956509,0.2594107213251611,-0.1591855669768027,0.11763798950788663,-0.05162594682125458,-0.03197909007715495,0.011859193849219895,0.03953811997863488,0.9726482540242172,-0.0032449721203332165,0.00020288722296357277,0.0007418444059861602
-0.5671627741792652,0.23764624749742336,-0.25614300551570046,0.06834655192811212,-0.03326328906964569,-0.06634836592561806,0.019933832043348934,0.036049178968780675,0.975348826122576,-0.003501115125848917,-0.00036427555121569245,0.0009794906534835836
-0.41664015505054053,0.35619130707705915,-0.06624488215950308,0.13645332286159878,-0.00288570336580001,0.0018915147985877553,0.0169732977975966,0.0326925298894627,0.9784070288658899,-0.0035673600080084206,-0.0007809157062662331,0.0013356819605606428
-0.37740314318410073,0.18086716873966685,0.046877059703389984,0.13076134952736793,0.013917200073708221,0.04729469181335195,0.024761576972654426,0.037772128892423824,0.9802028810024954,-0.00352048294830503,-0.0011583188494503336,0.0015165491293003097
-0.5865338231629063,0.18204000623851704,-0.00615159471514419,0.19354586188136536,-0.030250969277796046,0.07313713286580485,0.024681657152176104,0.03483112018466982,0.9686957588492163,-0.0035266345430201742,-0.0017448526726132401,0.0016985891355388264
-0.47195521655244066,0.04872090289999942,0.09014784796472282,0.24502787677000518,0.016744475108860266,0.037881283694623465,0.0203824189399092,0.041061132779818384,0.9809878288461763,-0.0034364866950554514,-0.0022168078891656806,0.001747310038438826
-0.4962439265866566,-0.015441059532320375,0.15246646812737244,0.23860138360139363,0.028554868573169356,0.10157280503386569,0.018642983453868802,0.03985922735444934,0.9675465091701803,-0.003284020226928079,-0.002713051815752337,0.0017318689789065055
-0.468651755189015,0.05125231244505963,0.189452801850266,0.25426630213640095,-0.024965283767628712,0.11352992601982966,0.019093900594919156,0.03260623555633154,0.9718866125927715,-0.003094567425077813,-0.0031817035709413516,0.0017831212913515652
-0.5028155632637434,-0.012553126208109056,0.3100609954334522,0.22198739575838022,0.0072049595564410394,0.12458196484672926,0.014404613350046443,0.035906872070937484,0.988492764969536,-0.002784506429644361,-0.003684519134205095,0.0017705681651434561
-0.4256441787985068,-0.21526235822346323,0.3014165762521132,0.23545063268413854,0.050829725336989054,0.10424582001188605,0.02926002004882869,0.0306503805196529,0.9793787813893106,-0.002483089853392248,-0.004110163313003601,0.0015553058069199932
-0.26720312062231527,-0.13349957157086398,0.26462027961396994,0.16347062950510655,0.0858713892649163,0.08424221148076043,0.02533026349687287,0.046865698545909384,0.9803760407444803,-0.0022184695737782778,-0.004377366433625917,0.0014218062353491291
-0.27247362868366704,-0.24707241317755557,0.2038645561824764,0.2109991736558818,0.0470490034061152,0.10636434448641008,0.012068157732256035,0.04223899174029383,0.9780718730890895,-0.002014605017595801,-0.004649840062309583,0.0011747338221715733
-0.14307969010827837,-0.35817555728483863,0.3432299745161843,0.18967965660232272,0.04444356162111729,0.06059938180919753,0.02279388517391165,0.037222996077099516,0.986520730959129,-0.001671375043079617,-0.004792919752417862,0.0008165582648867347
-0.03342838033478652,-0.2829693780660038,0.25865945412623687,0.18644265814844918,0.061295001205122594,0.0773746824175663,0.019866894609774675,0.034549097138722534,0.9850266424857341,-0.0014127155889533804,-0.0048263481327526486,0.0005335888868207308
-0.07659159297587771,-0.3681970080652176,0.3052157217007372,0.10663174173623197,0.02119081214932244,0.06526671383451668,0.017884005884630648,0.02785594176628886,0.9782047913234447,-0.0011074998672526433,-0.004902939725728526,0.0001653918787555132
0.1016180467823258,-0.47502084279478535,0.3097737600616094,0.06081581204446946,0.08661424164498234,0.04853743568080348,0.01623997352491339,0.040246554973280904,0.9745118999273964,-0.0007977261071910337,-0.0048013216789462,-0.0003096289640392722
0.18734937569501395,-0.4448776582056011,0.1934920793690066,0.027010012100403956,0.03465524909286659,-0.06401567589739172,0.023087520309715604,0.04152148831285024,0.9720684788617304,-0.0006042340278220272,-0.004613972303251186,-0.0007545066222448733
0.3218945934185208,-0.4241840789345884,0.154724511855286,-0.03484788749133187,0.03197729024172133,-0.05713353104714993,0.020320328452155346,0.0424282242327706,0.973092595396799,-0.0004495095159667411,-0.004292077709832666,-0.0011786907011794617
0.3317543308867484,-0.24155913950902394,0.049983226760208985,-0.031519083477250236,0.061136340276445114,-0.06660783997244916,0.022715860539240667,0.039220891334728204,0.9765929225486295,-0.0003995262892065321,-0.003960323378945917,-0.0014202498406884858
0.36215611526787594,-0.28273743109283855,-0.033264290271802506,-0.006702114536028024,0.007597489958237035,-0.11148723018595517,0.014681993457915907,0.03859326082535284,0.9727758485928856,-0.00043279057947833463,-0.0035981672636780414,-0.0017029872717813242
0.45908336525538695,-0.3202389382908987,-0.15047408034272322,-0.03465849990878435,0.034069925660044784,-0.0713599486287307,0.01804576132595976,0.04397126360653969,0.9779445359258999,-0.0005832646598210578,-0.003139083898422655,-0.002023226210072223
0.6364869750762293,-0.2873087321872739,-0.13114938673637078,-0.11332548667607206,-0.019011361162452382,-0.055944215466735274,0.022947074188222207,0.04501288465869846,0.9816286666156843,-0.0007144140465574286,-0.002502596923346425,-0.002310534942259497
0.5085693531462142,-0.244167981638437,-0.15197373606826883,-0.09305487543127873,-0.0895991966357881,-0.10568737488491056,0.019920957088176455,0.04451450944308348,0.978900414208493,-0.0008663877826256974,-0.001994027570200211,-0.002554702923897934
0.6461766633561772,-0.22501108838484196,-0.2501025792999606,-0.13329660955129302,-0.033323588075697685,-0.16462403719621177,0.017777706060643404,0.03069967534446648,0.972977638512269,-0.001116490361925658,-0.001347850906844034,-0.0027797140122827763
0.4949435781480868,-0.007647933763259215,-0.27368051963485757,-0.0760635253551405,-0.09738627764649743,-0.1556264394409436,0.015408923693257089,0.03392130474161341,0.9795286895353483,-0.0013901708815605158,-0.0008529073286959471,-0.0027873619460460353
0.43860759655740944,-0.1369458070458776,-0.23281677650142565,-0.06945240623044023,-0.08200264250807789,-0.11262783845182785,0.02099095953804503,0.03384424181390096,0.9769173304378246,-0.0016229876580619415,-0.0004142997321385376,-0.0029243077530919127
0.6018975037677569,0.04287670422251704,-0.21568616653480538,-0.0769827238413387,-0.06370282918413461,-0.1413868251588102,0.027657168890113305,0.03329712648697533,0.9770961286774195,-0.0018386738245967469,0.00018759777162921933,-0.0028814310488693958
0.45731656034584633,0.03857340490076419,-0.13124892459564547,-0.08050378298114154,-0.08427443888484322,-0.1217331340593734,0.01618737471344886,0.038069999609007796,0.9686708116736557,-0.0019699227491923924,0.0006449143319750657,-0.0028428576439686317
0.5448475341683996,0.22859945353352226,-0.019370334678132442,-0.09444558115646305,-0.14007722478959367,-0.07994545776542245,0.019894738586970943,0.04242166476351055,0.9738520192382244,-0.0019892930838705243,0.0011897618661434652,-0.00261425819043511
0.46560222726969386,0.37225190765215915,-0.06296427059896637,-0.08152007619110714,-0.11589349774837808,0.0035473203398128147,0.015804644268450185,0.042183693808122966,0.9747807351396283,-0.002052257354469491,0.001655364093413159,-0.0022420062827829506
0.4629412100015432,0.29303423564908526,0.002877536961551814,-0.05710963762570583,-0.061918497858569246,0.009139844368457344,0.009830938399033342,0.03548862871357083,0.9711545506128261,-0.0020493798175079394,0.0021183053034147022,-0.0019489720471338652
0.43848449319977023,0.4300353041301986,0.016376692283522128,0.03202089026128317,-0.13673034720328064,-0.006988817743834171,0.014177802362106928,0.0463229316161885,0.9725201138457087,-0.002033003125224417,0.0025567897966144726,-0.0015189367430036666
0.3084257628693873,0.4761005818239541,0.03501152652472136,0.02997428366417104,-0.11623288533142404,0.020563291115368032,0.02035832230137821,0.039221017796333836,0.9745015389896461,-0.001997991598699696,0.00286521555948386,-0.0010428361611797127
0.15737369723097266,0.6649903296468562,0.11786462863998463,0.030320968835688147,-0.15378061235619792,0.10424467058189003,0.018314542799032014,0.038496048830309236,0.9776693657736995,-0.0018801269700597111,0.0030225892567148326,-0.0003778458315328564
0.2374819345045975,0.5255527023256118,0.03781228963556431,0.15892265765153013,-0.08457147145703904,0.024628220274075095,0.021495541614452593,0.031263646347149135,0.9756398602269264,-0.0018423146804241468,0.00326007119121943,0.00014770687079275547
-0.06014621438817633,0.44555531762235573,0.1572747938627726,0.13715707776622976,-0.08204185269802727,0.1378304597437091,0.01309922521053097,0.046079308161911796,0.9835452510437891,-0.001685039886561374,0.003199924976831254,0.0005932621884151113
-0.04013624033636082,0.4605068065887262,0.1749603478892488,0.13697072662007112,-0.06920012578054413,0.1694774738136214,0.02554527827300904,0.037399292332109084,0.9761197644574421,-0.0015100795386721252,0.003159788736494893,0.0010537689950038374
-0.02656484885641064,0.3588056606737168,0.07567884735009521,0.15924163565125568,-0.019901383222129525,0.15926521246751169,0.018191430862558623,0.03370935015988058,0.9754669435552932,-0.0014344006913220304,0.0031332238876384828,0.0014125746556775543
-0.09425912344604648,0.19936759900193715,0.20337676319080744,0.1627519302136119,-0.0066122964764551,0.1754279713732737,0.017909914075950984,0.045842546215197316,0.9844152850250669,-0.0012310239281312228,0.0030389647641924362,0.0016119422546794918
-0.24835279852418649,0.20976133389383306,0.18134474987949636,0.13410731387290034,-0.02328906253641684,0.1605190278731062,0.01870145561092404,0.0394946102410899,0.9821336476904451,-0.0010496791782517263,0.00279061196566825,0.0018217035885733247
-0.197132535013999,0.1845365757110711,0.05301762276148397,0.10009924781891683,0.011385689988372198,0.1331809323010155,0.022814004630520746,0.03687290177362896,0.9814688707818935,-0.0009966615554902424,0.0025934794306542506,0.002006240164284396
-0.3353741622976844,0.1935128803051686,0.0665352194407579,0.1381841067493405,0.002813319876735756,0.1551102221399794,0.014567518781225006,0.03463608109472662,0.9758633372822053,-0.0009301263360494843,0.002258105268356566,0.0021997530445895647
-0.26801425422656916,0.030947486379396448,0.0005929709984665889,0.07311051609450395,-0.006543925635943152,0.15451843985426764,0.015092260026109472,0.027384006641162043,0.9767774876433635,-0.0009295333650510178,0.001990091014129997,0.002230700530968961
-0.34678777323466015,-0.11421007339941533,-0.12602884708987624,0.06842822207236701,0.04083569769810404,0.1857937125650501,0.01659786964228857,0.0396645825976302,0.9782608620933015,-0.0010555622121408942,0.0016433032408953365,0.0021164904575695456
-0.4537555272916677,-0.009175787838629601,-0.2268689532344741,0.08404521290677104,0.05878053094844581,0.06455143880588349,0.012003229114005459,0.04259824182081526,0.9815430709811922,-0.0012824311653753682,0.0011895477136036688,0.0021073146697309156
-0.34329891492654463,-0.26922189991812084,-0.08205569435787173,0.0435794361815344,0.019069324948376928,0.08767162214881741,0.020256988599595134,0.0427951863646134,0.973209622769872,-0.00136448685973324,0.0008462487986771241,0.001838092769812795
-0.19852359746054976,-0.16654843906481093,-0.3103580744232408,0.028585994214175486,0.09166617694049074,0.05701082105149254,0.01256690003948956,0.045245004167611715,0.9853166213666003,-0.0016748449341564807,0.0006477252012165745,0.0016715443307479842
-0.2092693251083986,-0.06752726361458106,-0.2693170519185779,0.0012702489983136764,0.14205419832571803,-0.02786196927044137,0.0118165727586813,0.047414561776112946,0.9695618158761601,-0.0019441619860750587,0.0004384558761081759,0.0016040170671334031
-0.0982049320274044,-0.2783117411780526,-0.3001904656643546,-0.15138848268523405,0.08199698535554963,0.008171861015087082,0.02612139843614028,0.049127182338467086,0.9767758135343371,-0.002244352451739413,0.0003402509440807714,0.0013257053259553503
-0.22863005206750983,-0.19907465264293128,-0.328615131126385,-0.0821643297134463,0.14743156571407592,-0.05004891703643108,0.005480454984934539,0.03353000389374573,0.9875651944890869,-0.002572967582865798,0.00011162089201326156,0.0011266306733124193
-0.23750881206153307,-0.22427211600927063,-0.3165708309158042,-0.13796741217027875,0.004282156714981737,-0.01941777925038688,0.012218948204070993,0.03222863045645852,0.9769184647146496,-0.0028895384137816024,-0.00012588792004827152,0.0009023585573031486
-0.1422241993815323,-0.29425933186642805,-0.32131091780020116,-0.13865035864212516,0.04998941133244178,-0.015791161375990452,0.013489157716424161,0.04121753643952672,0.979763538025436,-0.0032108493315818037,-0.00026811211942980387,0.0006080992254367205
-0.022088595147200143,-0.18696162896236113,-0.3686040902125664,-0.22806147095734972,0.05766999415001428,-0.09046705246645073,0.022131845076526994,0.030919264492673383,0.9756554047738911,-0.0035794534217943696,-0.00029020071457700397,0.0004211375964743593
-0.07926404829752265,-0.14840837194089485,-0.23253724595830935,-0.2478592166877792,0.06757074443424825,-0.04402407760182963,0.027155668437095812,0.0329312604164286,0.9836166683241955,-0.0038119906677526794,-0.00036946476287452664,0.0002727292245334645
-0.041425605572199355,-0.07751612351471461,-0.11264919469864064,-0.21450847025319397,0.06562186992564358,-0.0634617715647953,0.0024398559671584656,0.03571735026969598,0.9876693873561219,-0.00392463986245132,-0.00041089036844672606,0.00019521310101874989
0.013525672860777556,-0.09748098941899698,-0.18882965337856122,-0.24726057751210592,0.010705467294385679,-0.14454016864270583,0.020507382505506107,0.03583481966086868,0.9789099958984423,-0.004113469515829881,-0.00039736469558594847,9.773211159975291e-05
0.09470818690443278,0.007301365105603287,0.00933435525693549,-0.22295867338726988,0.03462795198392643,-0.07944704032529613,0.0142766694267291,0.040178286788784094,0.9753336053654558,-0.004104135160572946,-0.0003026565086815157,0.00010503347670535622
0.18179408613016193,-0.00787919437253274,-0.02893626306699449,-0.22358601069570808,0.01276418154947803,-0.046625204754603564,0.01670999473636126,0.036337922071346444,0.9877672658131234,-0.00413307142363994,-0.00012086242255135375,9.715428233282347e-05
0.3189611284334505,0.000710092223573662,0.03464174949209154,-0.23615198214603225,0.047919809545526264,-0.016300473626834615,0.01222836922904627,0.04612748190300435,0.9877338665895803,-0.004098429674147849,0.00019809870588209674,9.786437455639713e-05
0.2885150663197518,0.13596499190252337,0.08704904821687368,-0.111590498954197,-0.026495654617203886,-0.000823139938863968,0.010342537372351645,0.038220318129100726,0.9801166876019493,-0.004011380625930976,0.0004866137722018486,0.0002338293664589205
0.2717060237872898,0.23024644561921637,0.18433700002068995,-0.15277304472643585,0.01679071727972161,0.014097493007190343,0.012190295955709288,0.03450591255662843,0.9852604041548741,-0.003827043625910286,0.0007583197959891383,0.0004640758120781369
0.21005878022491936,0.21460436882981787,0.19308804017996267,-0.08381390849486407,0.0009187931246839014,0.007928947448573557,0.011609332759715638,0.04314568964598515,0.9696499699709393,-0.0036339555857303227,0.0009683785762140579,0.0006786801809079548
0.42506554316454187,0.13229261014153765,0.3637789647694975,-0.05080481072179244,-0.045046392121615174,0.03377184288941855,0.02381310275043077,0.03955416570414227,0.9764298950464307,-0.003270176620960826,0.0013934441193785996,0.0008109727910494924
0.37750612485125895,0.25772270786654106,0.3329509839360359,-0.03454811374181357,-0.0588615862971169,0.05561359892054818,0.022021536186507533,0.03207161807825267,0.9768132278034872,-0.002937225637024789,0.0017709502442298586,0.0010686954989160334
0.4400803200334123,0.3064673808593311,0.3559168386751296,-0.013525554575940228,-0.014380607651374413,0.17777002686203758,0.009783421172618025,0.03553278246722507,0.9779684795473224,-0.00258130879834966,0.0022110305642632708,0.0013751628797753646
0.4749248490996789,0.2600735092820374,0.247334609069224,0.0657593968824567,-0.08226520826548771,0.0804840824828302,0.019267673785374206,0.03640511445269877,0.9735979815157111,-0.002333974189280436,0.00268595541336295,0.001635236389057402
0.2632206158591125,0.3086799422942641,0.2944503368552331,0.08248554838039532,0.0069828694638397,0.1047594876342469,0.007826285468506314,0.03535644015908176,0.9835846944550786,-0.0020395238524252026,0.0029491760292220627,0.0019439163313516661
0.30424189341143154,0.27079424373078287,0.2571715160609663,0.15482226440193747,-0.05102628551029133,0.13090801184442635,0.020599492404757856,0.03140060634700701,0.9755506019718082,-0.0017823523363642369,0.003253417922633494,0.002214710575082449
0.2514897249495835,0.2746322230475029,0.2031365019152618,0.15198825245251135,-0.050328157628067964,0.07447741381082475,0.014000610299114457,0.03475977653335005,0.9810503981069345,-0.0015792158344489751,0.0035049076475830777,0.002489342798129952
0.0882825834464344,0.08223696353481819,-0.0005057425972223029,0.2525768051091686,-0.09193637312758991,0.09660726826877393,0.013758964958049083,0.03565859866941633,0.9774787222112445,-0.0015797215770461974,0.003593190231029512,0.0025715797616647704
0.043547548676554484,0.04620356909057321,0.1391921069137427,0.21996867198733397,-0.022515258038130294,0.04818652589910375,0.012556419866319352,0.049291017594516054,0.979168662954475,-0.0014405294701324545,0.0036367377797060668,0.0026177833307553435
0.054733103617860414,0.06053578661170816,0.1059460547065213,0.19750561238595352,-0.03651360638725815,0.11761811189582504,0.021414056430099474,0.039409620992884274,0.9819474119483167,-0.001334583415425933,0.0036914708833239267,0.0026783191173670516
-0.014970051447630004,0.02863668723638571,0.08850670742791827,0.21884832911671287,-0.09673123333582324,0.04396869164030896,0.012337111251517346,0.04341924670765664,0.9803256992256869,-0.0012460767079980149,0.003676500831876297,0.0027069558046034373
-0.1282881889403019,-0.02005265983006628,-0.08910184906954205,0.22208939801138125,-0.08032000143821547,0.021260142142904656,0.014278656963942553,0.0477604778282683,0.9703934448927789,-0.001335178557067557,0.0035482126429359946,0.002686903144773371
-0.009183065296694937,-0.3543573475763863,-0.1180801679916218,0.1864918876791717,0.006066605665651767,-0.007086808072705527,0.006709419224031946,0.04211943845940786,0.9795933965289734,-0.001453258725059179,0.0035390295776392996,0.0023325457971969847
-0.24712868940708502,-0.17939126428099456,-0.17166962585785975,0.20441990963082587,0.0007987180950746239,-0.050695151706609036,0.009812606881346438,0.04157576925960904,0.9828687015016373,-0.0016249283509170388,0.0032919008882322147,0.0021531545329159896
-0.18114803081645484,-0.2638569816592529,-0.11031772450144325,0.18224269613109317,0.0062994871254893475,-0.05244101204154641,0.016948314951927983,0.04523684157607374,0.972200528528238,-0.001735246075418482,0.0031107528574157595,0.0018892975512567372
-0.33806038655835047,-0.2975437831491841,-0.09884370653995399,0.15647094002722226,-0.012107242868919097,-0.10024784754622408,0.010826228799160016,0.03601261579620727,0.9794465897944996,-0.0018340897819584358,0.0027726924708574093,0.0015917537681075528
-0.384572473625072,-0.3966096722939053,-0.20989842825273167,0.1403522542107206,0.05466597398369613,-0.11365196639350163,0.02016695044668651,0.043617188121967576,0.9829540280300114,-0.0020439882102111675,0.0023881199972323377,0.0011951440958136478
-0.3742645940117066,-0.36040538078275414,-0.2699766394295884,0.07268463981787372,0.012992380344209301,-0.11956940201213025,0.014637579943662422,0.0358995095651362,0.9818031876822557,-0.0023139648496407566,0.0020138554032206307,0.0008347387150308937
-0.5145903797329118,-0.4235375077738899,-0.17935438912631327,0.027964863812570663,0.06241655985817214,-0.14690639189990987,0.008636296390711892,0.03553154938814243,0.9727621602255853,-0.00249331923876707,0.0014992650234877188,0.0004112012072570037
-0.6054024338411548,-0.5029542560034024,-0.08785192647752672,-0.016232558154872553,0.036765516114301705,-0.08517046835787091,0.0222408944326805,0.039125242759409457,0.9758087852790303,-0.002581171165244597,0.000893862589646564,-9.175304874639867e-05
-0.7200224742254635,-0.5712495360495238,-0.15113183139703473,-0.06122609765995758,0.0839203142504132,-0.18225969360250183,0.012120985804257207,0.04070414901925469,0.9855402592057462,-0.0027323029966416315,0.00017384011542110047,-0.0006630025847959225
-0.5726559569148006,-0.5701006391904337,-0.004099360837184665,-0.048444619120427225,0.04416098333494601,-0.16429561131003628,0.01538513812398726,0.04618897881934147,0.9801043762036588,-0.0027364023574788163,-0.0003988158414937002,-0.0012331032239863563
-0.650693961856825,-0.3186546062314497,-0.028431313367006213,-0.06509449815292281,0.09563562669994471,-0.12886331827120048,0.019401461962407076,0.03839595398756246,0.9835684825622062,-0.002764833670845822,-0.0010495098033505253,-0.001551757830217806
-0.49422703404526,-0.38640027799233184,-0.0011442720519407173,-0.11982618661672548,0.07145714707275311,-0.10650974246608656,0.007534444857248128,0.04430911339521257,0.9820932609232853,-0.0027659779428977627,-0.001543736837395785,-0.0019381581082101376
-0.5800372411456259,-0.21783360398400303,0.07449060245255436,-0.061034959115174515,0.04375652781431718,-0.09178503764584217,0.012389029475718993,0.043918657106373674,0.9834658698838393,-0.002691487340445208,-0.0021237740785414114,-0.002155991712194141
-0.5795259406663694,-0.1801679579354701,0.12735979749602858,-0.14328648363074076,0.018260927098271786,-0.07955083809858064,0.011844066375504421,0.034865923758717166,0.9842759088522871,-0.00256412754294918,-0.002703300019207781,-0.0023361596701296106
-0.40579757154949836,-0.11352946366559552,0.14117576024224038,-0.10254704845973654,0.04013968148827722,-0.05212909888835181,0.01011896973803127,0.041907142905272685,0.9824173272298531,-0.002422951782706939,-0.003109097590757279,-0.0024496891337952064
-0.47431051270372265,-0.05419733100005898,0.2781801135150316,-0.08952737050179638,0.005441840132024305,-0.0053019804786266465,0.011026754528769278,0.043443154363767056,0.9885646110818989,-0.002144771669191908,-0.0035834081034610017,-0.0025038864647952655
-0.356554520547929,0.10896132897721195,0.07485584793304736,-0.12362999052538573,0.04828848813294327,0.018449733559713945,0.01100090036408774,0.043502403547293886,0.9764984966753248,-0.0020699158212588607,-0.0039399626240089304,-0.002394925135818054
-0.19129019460551822,-0.036837780247468754,0.08853467684583985,-0.06876601453065961,-0.0336757592583777,0.10329390490931432,0.014906204914972836,0.040653496205853686,0.9823227791915949,-0.0019813811444130205,-0.004131252818614448,-0.0024317629160655226
-0.2771592493943829,0.28398125185710094,0.022005348339959346,-0.0826204958836915,-0.05038498447168512,0.062093355279779876,0.014464746353016728,0.040973901512887476,0.97665610799215,-0.001959375796073061,-0.004408412068008831,-0.0021477816642084214
-0.09359012843776437,0.26829533787606713,0.10774409465219731,-0.07311986405021048,-0.013720800873175877,0.08598003261459444,0.011433599416609362,0.034748301034599145,0.9834710650465069,-0.001851631701420864,-0.004502002196446596,-0.0018794863263323542
-0.0318539519619019,0.4254424335271934,0.28417715027105617,-0.06240584649328502,-0.04952143128544108,0.18021694448520786,0.011504126762113022,0.036566521032186376,0.9810793415753396,-0.001567454551149808,-0.0045338561484084975,-0.0014540438928051609
0.016152631942174277,0.363855484458538,0.11792424313490223,0.016511847257705003,-0.07315605797414074,0.1316775899031741,0.01245993589794658,0.04948925482310138,0.9766517322116322,-0.0014495303080149056,-0.004517703516466323,-0.001090188408346623
0.2415270032048029,0.45777153095002227,0.03597120026047955,-0.010236433862943142,-0.06165608952637725,0.1428485204295211,0.01143027525168745,0.04427399064594349,0.9832318242711205,-0.001413559107754426,-0.00427617651326152,-0.0006324168773966006
0.15334496305558706,0.3979284744981839,-0.09808710812372569,0.0640001447672023,-0.07710528053871667,0.1602536590054982,0.013426811203437717,0.04148152472875151,0.984003760662344,-0.001511646215878152,-0.0041228315502059324,-0.00023448840289841665
0.1783804364206581,0.45272253742263957,-0.10351870271063807,0.0845690443569037,-0.1261334556986845,0.2040871056432227,0.006469782253583319,0.04300483658615916,0.982132718013999,-0.00161516491858879,-0.003944451113785275,0.00021823413452422294
0.3200095814727014,0.4045726266017375,-0.18493662503268418,0.07222807644035555,-0.06896749332407381,0.1710195655315779,0.013335701234261997,0.03910430913491686,0.9729293622028425,-0.0018001015436214744,-0.0036244415323125737,0.0006228067611259605
0.46075806223252774,0.541936588974613,-0.19423663593904186,0.125890719062423,-0.11929969438174644,0.15711719619423908,0.015098739058529018,0.046698523168682046,0.9872239669355123,-0.001994338179560516,-0.0031636834700800457,0.0011647433501005735
0.36334631959331254,0.24681352879431565,-0.3686682776690924,0.09050320178509652,-0.13189666978029665,0.10951091563155292,0.006612031962977671,0.035198792703000054,0.9784195256713437,-0.0023630064572296087,-0.0028003371504867333,0.0014115568788948892
0.5479606265004301,0.2702983429269384,-0.20970972227433266,0.12857800854082208,-0.0818944689734987,0.0832265362251249,-0.0003097487477585828,0.04135613400824514,0.9849685494123575,-0.002572716179503941,-0.0022523765239863035,0.0016818552218218275
0.587441881224271,0.19080920489914935,-0.4298629343036741,0.1690822826851868,-0.11951937731548325,0.04510927835491305,0.017334561947256463,0.03583091437824918,0.9719602814118465,-0.003002579113807615,-0.0016649346427620325,0.001872664426720977
0.5143633142913758,0.0855427497822498,-0.2430172925942847,0.18217544331402316,-0.08013637049324672,0.025086438333748982,0.023101094384157812,0.03795311272201314,0.9768725090061682,-0.0032455964064019,-0.0011505713284706562,0.0019582071765032265
0.5983039263629513,0.12098657684742929,-0.3044029705075616,0.11752103261492504,-0.08602666522555126,0.08893632663116531,0.013893321654398902,0.035154674889526394,0.9855634103239782,-0.003549999376909461,-0.000552267402107705,0.002079193753350656
0.6351958377928175,0.2522534058585588,-0.26164118083650617,0.09861275991845243,-0.08932923125899092,0.006829197736894142,0.009729078640032786,0.049054274218366924,0.977754820812937,-0.0038116405577459677,8.292843568511256e-05,0.002331447159209215
0.5939521980117705,0.021440446357041516,-0.30919734900254686,0.15417215804450435,-0.04364656928141685,-0.01982667251123047,0.011919778812826864,0.047814516123842965,0.9785337686283171,-0.004120837906748514,0.0006768806336968831,0.0023528876055662565
0.6228290221019444,0.06496558407233721,-0.14410908420827628,0.10983215382969808,-0.04175605602513144,-0.05125031443728472,0.0021296940811276963,0.044342832486990794,0.9820402625520813,-0.00426494699095679,0.0012997096557988274,0.002417853189638594
0.4721904369878689,-0.16693141979782847,-0.18688381351547453,0.053931106453895254,-0.043791905459902095,-0.05468109711147628,0.017250760688586348,0.04918603575206678,0.9787064870334289,-0.004451830804472265,0.0017719000927866964,0.0022509217698407653
0.42745546723986777,-0.06937794643757447,-0.01830521053452714,0.019336834083465714,-0.042522645986993235,-0.12282212520069384,0.006308083929225206,0.03797403310041961,0.9887683927557596,-0.004470136015006793,0.0021993555600265642,0.0021815438234031913
0.2603489247413626,-0.19791321127911923,0.017196328148476287,-0.043486016772305416,0.014272773596643765,-0.04894252929669194,0.0045269924221599984,0.03269121670339903,0.9841189679608888,-0.004452939686858315,0.002459704484767927,0.0019836306121240716
0.1821503815198694,-0.24358664367888078,-0.06039316921666022,-0.029509887876770974,0.0041780449596140875,-0.0936762756597684,0.005835117791261566,0.038486866900758684,0.9870243533795541,-0.004513332856074977,0.002641854866287796,0.001740043968445191
0.23996230043340225,-0.25199658518628193,0.12625939210569723,-0.11049811103117176,0.028385702663735527,-0.04750017494359421,0.013456803242910511,0.0348069306814696,0.9790460918498265,-0.00438707346396928,0.0028818171667211985,0.0014880473832589091
0.1368732196722533,-0.27420168626146535,0.24168928924279223,-0.11828185029741668,0.0707947649463413,-0.11204603555029208,0.012644277777784596,0.03698206519811495,0.9831473383043698,-0.004145384174726487,0.003018690386393452,0.0012138456969974438
0.1778540444309188,-0.07735703860788068,0.26223891714337155,-0.1454298534845708,0.07197464974729563,-0.058888088090928235,0.008117643554683805,0.036571659414262374,0.9868025932759159,-0.003883145257583115,0.0031965444308243705,0.0011364886583895629
-0.00198097943876116,-0.27010280309201556,0.26830017088045505,-0.19515982384683173,0.028834365224808593,-0.023805455841658225,0.013675546244801093,0.04570960268381441,0.9846770712856432,-0.0036148450867026605,0.00319456345138561,0.0008663858552975473
-0.07129170768725004,-0.20342497324391262,0.35195995029451105,-0.19283574968571127,0.08568300051393943,-0.005076982265503726,0.008209749935204173,0.03829563503047365,0.978554755249425,-0.0032628851364081488,0.0031232717436983594,0.0006629608820536346
-0.03606147207705865,-0.10395163836397611,0.29152091741176356,-0.22040917719628503,0.10629118943540854,-0.00922989349655604,0.01134110416473469,0.0349798255794084,0.9850903913191522,-0.0029713642189963855,0.003087210271621301,0.0005590092436896585
-0.23897764164237786,-0.17758363582996253,0.23871827707914456,-0.26590263793885993,0.013543771938499267,0.013713663999153533,0.013273936205012153,0.03896611746908648,0.9876964260546124,-0.002732645941917241,0.002848232629978923,0.0003814256078596959
