motionRotationRateX(rad/s),motionRotationRateY(rad/s),motionRotationRateZ(rad/s),motionUserAccelerationX(G),motionUserAccelerationY(G),motionUserAccelerationZ(G),motionGravityX(G),motionGravityY(G),motionGravityZ(G),motionYaw(rad),motionRoll(rad),motionPitch(rad)
0.010760682776367936,0.2619472133098999,-0.16219500211591223,0.22754143720943393,-0.03211435028430412,-0.014122440816625706,0.019534257397751283,-0.046100761261091035,0.978369541320607,-0.00016219500211591222,1.0760682776367937e-05,0.0002619472133098999
-0.0075819511728015265,0.24185000646837407,-0.16942207247259727,0.23229439309757338,-0.021352611720441693,-0.044049361714885556,0.016897935690180173,-0.04143573822088918,0.978399450361082,-0.00033161707458850956,3.17873160356641e-06,0.000503797219778274
-0.20778744777011007,0.08989298563310846,-0.24405981109842567,0.25152979285789384,-0.05182169991403655,0.0099251447698123,0.022235543721403017,-0.03467009286842025,0.9760125040211824,-0.0005756768856869353,-0.00020460871616654366,0.0005936902054113824
-0.19936020554419126,0.05964704647546141,-0.1796019949985735,0.24053627158576257,-0.04201342302207519,-0.07162641552376063,0.012839971859068313,-0.0339487190047254,0.974899971502163,-0.0007552788806855087,-0.00040396892171073496,0.0006533372518868438
-0.2245308844455813,-0.04359859308109053,-0.11546104598737772,0.18616337163433677,-0.044303012716987285,-0.04190481715407956,0.014967923548486178,-0.03251667751522444,0.979478306108224,-0.0008707399266728865,-0.0006284998061563163,0.0006097386588057533
-0.2675506308411087,-0.012803107407098183,-0.23994241706611577,0.13309288204339767,-0.038947077044585825,-0.07870667460895833,0.0091434609866348,-0.04001497440029184,0.9830264323001254,-0.0011106823437390023,-0.0008960504369974249,0.0005969355513986551
-0.3638062684996874,-0.17968386495821229,-0.1600230207804438,0.16282030365966318,-0.031540137692969976,-0.0588447244777524,0.028349031226576095,-0.043346704085598195,0.9680902590343685,-0.001270705364519446,-0.0012598567054971123,0.0004172516864404428
-0.3129349387094451,-0.2014605512608592,-0.09258414528125983,0.0778285775212141,-0.016586229056216983,-0.0733124387971504,0.014552897867863467,-0.037729494717167224,0.969305273118601,-0.001363289509800706,-0.0015727916442065575,0.00021579113517958355
-0.4283875240441949,-0.19542679532623777,-0.12731332836478693,0.07773641738049289,-0.006871022913346122,-0.052112032627441345,0.01598502488896688,-0.04140764264197699,0.9757817244159552,-0.001490602838165493,-0.0020011791682507524,2.0364339853345766e-05
-0.33874928070308985,-0.1955441480944057,-0.12798851858529914,0.023434538725947966,0.04508940966537127,-0.05592793935636151,0.02366297857312226,-0.03663155817660827,0.9760201683133867,-0.001618591356750792,-0.0023399284489538427,-0.00017517980824105993
-0.24662405457944012,-0.2582255680549766,-0.07704785562675362,-0.025886791737126352,0.05123599966705644,-0.10174137999228965,0.016891273363509443,-0.03713390964520943,0.9756277065905217,-0.0016956392123775458,-0.002586552503533283,-0.00043340537629603653
-0.28187586026633493,-0.3534401042257975,0.0720209257341179,-0.05417775364116073,0.02174698139830289,0.009115256102165797,0.012492195468996815,-0.03376958805587716,0.9673446926671032,-0.0016236182866434274,-0.002868428363799618,-0.0007868454805218341
-0.3546299482249148,-0.3221131138489033,0.12343917300273141,-0.08619379376580527,0.025902580676400222,-0.015881353858967308,0.015411753180251756,-0.04207393441334584,0.9720453498531292,-0.0015001791136406962,-0.003223058312024532,-0.0011089585943707375
-0.18797390810260817,-0.15517390557537775,0.08105311052724747,-0.10915525769456112,0.041277041727918774,-0.007879469001653523,0.027375847602073223,-0.038288131293423414,0.9713637420314726,-0.0014191260031134489,-0.003411032220127141,-0.0012641324999461152
-0.21510594180062664,-0.21041826583511955,0.3071778012990749,-0.1556493795861834,0.04406623984276439,0.03137697885029774,0.018588582957970112,-0.04005014583094,0.9701531044906073,-0.0011119482018143738,-0.0036261381619277673,-0.0014745507657812347
-0.15863384873557182,-0.15390008593132523,0.1618639922971718,-0.10810179258951888,0.10133508834562559,0.0905743308814647,0.019916517280794813,-0.026441498075094577,0.9770762623569396,-0.0009500842095172021,-0.003784772010663339,-0.0016284508517125599
-0.061366707690701995,-0.07227845672098732,0.16043263317044948,-0.14731405876127548,0.11462105148599627,0.07172005583666291,0.020267370229169968,-0.03726958798343844,0.9748588430362509,-0.0007896515763467526,-0.0038461387183540414,-0.0017007293084335474
0.05980007241506152,-0.008753276343657503,0.2449386427219485,-0.0661433980510006,0.010371536143346599,0.0775851236027655,0.01645848718070378,-0.037344014737391615,0.9715495411030506,-0.0005447129336248039,-0.0037863386459389796,-0.001709482584777205
0.015257679233232894,-0.11303321206676128,0.27386314240864607,-0.12011512104626697,0.005397750239418965,0.1355735465467141,0.018969932195005746,-0.03533258136993587,0.9744915311359054,-0.00027084979121615784,-0.0037710809667057463,-0.001822515796843966
0.009996699192096933,0.05665823507278817,0.16723859812730524,-0.0905876047008049,0.05015238881558561,0.07000249263534554,0.021846535964124898,-0.0363386367254117,0.9717024591835067,-0.0001036111930888526,-0.00376108426751365,-0.0017658575617711778
0.07925897051578139,0.029053347323591217,0.04730821012462667,-0.07125120118652316,-0.02906666531025904,0.06868146220633888,0.011296960079359795,-0.032764803876831006,0.9773330349516505,-5.6302982964225915e-05,-0.0036818252969978687,-0.0017368042144475866
0.10813102199458437,0.1919089572359706,0.14015106706462635,-0.07286733529192553,-0.0002601383057005595,0.07499351332789438,0.017758490270238625,-0.035791547114945435,0.9707550127935743,8.384808410040045e-05,-0.0035736942750032837,-0.0015448952572116158
0.2794010345034111,0.32687151497919964,0.0010780601771720726,-0.038581440898803464,0.03942056225291177,0.08973767965379593,0.013102200487313895,-0.03705399233472977,0.9743496008583158,8.492614427757252e-05,-0.0032942932404998724,-0.0012180237422324165
0.2558808007618929,0.27925876827050067,-0.12732831814979068,0.07847688715840703,0.0002919920063115516,0.07084732712098635,0.02451580817679834,-0.03649058884324175,0.9651548421391535,-4.240217387221816e-05,-0.0030384124397379794,-0.0009387649739619156
0.36449578988906894,0.2672859563923371,-0.19008102431604443,0.09369959897425689,-0.07169865407350366,0.09404712552806076,0.019520863987129114,-0.034571917125775065,0.9703872036033049,-0.00023248319818826258,-0.002673916649848911,-0.0006714790175695786
0.25824710662103323,0.24396059887933286,-0.035712967494277964,0.041877374945214596,0.024592623109438605,0.03134084611906333,0.010386212393310513,-0.024110377341995035,0.9633979861682366,-0.0002681961656825406,-0.0024156695432278772,-0.00042751841869024566
0.3831513049188559,0.22638973176203847,-0.13002928638636252,0.06941322879042736,-0.06025877660557555,0.03588812548797727,0.0158110577112561,-0.029408704272498185,0.9725659775025124,-0.00039822545206890313,-0.0020325182383090215,-0.0002011286869282072
0.16882613923116124,0.22839451416396692,-0.25795727742167984,0.12444114875077338,-0.0501243288923982,-0.038442658158603156,0.019087593474726567,-0.041650666009819134,0.9693917585630295,-0.0006561827294905829,-0.0018636920990778604,2.7265827235759738e-05
0.25578004770626594,0.1547115130293632,-0.35205352483196267,0.09961419089661144,-0.10949778489420192,-0.05191776527352087,0.014607412267513002,-0.03409617294781162,0.9634379522877008,-0.0010082362543225455,-0.0016079120513715944,0.00018197734026512296
0.2766283239713464,0.1935943793752748,-0.3392483635662284,0.12506686737783465,-0.10866039803184449,-0.0713401437634016,0.019493153204309208,-0.026183630636576548,0.966916990044456,-0.0013474846178887741,-0.001331283727400248,0.00037557171964039773
0.23046939394086702,0.1530447139592895,-0.3774556905845522,0.20664120821342055,-0.11070868416903575,-0.08524312314615505,0.031058627390748963,-0.032892316777332536,0.9817760600744719,-0.0017249403084733262,-0.0011008143334593809,0.0005286164335996873
0.26853314616651636,0.1638634934440515,-0.3544758257575219,0.14647201993628758,-0.12392813624433673,-0.10504980415429456,0.020032890355812457,-0.03928262445396614,0.9720453325892087,-0.002079416134230848,-0.0008322811872928646,0.0006924799270437388
0.15261575440773842,0.14527694974784347,-0.27057386707802694,0.18240710722050824,-0.1299128755901399,-0.11474606755172916,0.013414257188176355,-0.03368685508063405,0.9701095719161039,-0.002349990001308875,-0.0006796654328851262,0.0008377568767915822
0.1541347913432671,-0.05668050322094509,-0.20564919222117808,0.19170477802018832,-0.1612309135094069,-0.1323538140943089,0.013260706723464397,-0.022566607602619977,0.9800739931536459,-0.0025556391935300533,-0.0005255306415418591,0.0007810763735706371
0.07477724379445425,-0.04205458944076372,-0.2525388241054545,0.1371701413601472,-0.12060696264644763,-0.21797210859715044,0.022076272787287805,-0.03970741768528981,0.9670455695855997,-0.002808178017635508,-0.00045075339774740475,0.0007390217841298734
-0.13760174439004913,-0.09033141171250818,-0.005298673401149978,0.08306242637077506,-0.09763795596270528,-0.16160041225703595,0.017431051967025442,-0.03737921021414851,0.9594312062546331,-0.002813476691036658,-0.0005883551421374539,0.0006486903724173653
-0.1420262718063213,-0.24182827331872972,-0.0077151717281847415,0.099018792598733,-0.15920832551159192,-0.15100129799543738,0.012655423937711007,-0.0373203230040449,0.9702878317148526,-0.002821191862764843,-0.0007303814139437752,0.00040686209909863557
-0.0802228812087119,-0.42436259725627035,0.0015596367501198236,-0.014272578712502829,-0.06131508083483441,-0.129845954347921,0.016732863743618053,-0.037234840904675395,0.9686117652833474,-0.0028196322260147233,-0.0008106042951524872,-1.750049815763477e-05
-0.22469822625204955,-0.3483654835710006,0.09357492657865514,-0.030316528489807613,-0.04455686115646062,-0.10483338704584862,0.025767665306724342,-0.03555027519163108,0.9730221339765095,-0.002726057299436068,-0.0010353025214045366,-0.0003658659817286354
-0.2701169026717822,-0.3460572015611276,0.2629730942311217,-0.034112979069778046,-0.08110720128863858,-0.06039786999288995,0.02661991772201018,-0.03614324383335154,0.9800587771206616,-0.0024630842052049463,-0.001305419424076319,-0.0007119231832897631
-0.3183242542442282,-0.4156406091937908,0.15625805918636315,-0.10952022417035981,-0.053900543018346556,-0.07922283991094135,0.015455387518137664,-0.031555220715654614,0.9668191381475993,-0.002306826146018583,-0.001623743678320547,-0.0011275637924835539
-0.4040029298526028,-0.43873613418800367,0.29182123918087205,-0.11618695144510549,0.009616329452158616,-0.09878973817889637,0.014193402284248006,-0.037918897514259295,0.9631762273204203,-0.002015004906837711,-0.00202774660817315,-0.0015662999266715574
-0.4907986226087399,-0.49982318902941986,0.21536098219616107,-0.1513993962298809,0.006089300603851965,-0.006156204612509169,0.01899200355744717,-0.03931406665146149,0.9688651065333297,-0.00179964392464155,-0.0025185452307818898,-0.0020661231157009774
-0.4884526669859073,-0.5443787001788938,0.34165759218046204,-0.20033038943276305,0.0006450827718524057,0.035543383668082115,0.01491693379600958,-0.022697680091314086,0.9636481176276795,-0.0014579863324610878,-0.003006997897767797,-0.002610501815879872
-0.46487065779787706,-0.4899174196749536,0.2569262688736226,-0.1640553484878997,-0.004855787432277466,0.09600090835535062,0.017100548607994245,-0.030852771648520988,0.9698615335811553,-0.0012010600635874653,-0.0034718685555656745,-0.0031004192355548253
-0.5305949116340593,-0.32345924737417847,0.317400084063464,-0.21601978100711597,0.045701413446078774,0.07624606826521013,0.021306354474881696,-0.025422211003772913,0.9729074161908731,-0.0008836599795240012,-0.004002463467199734,-0.0034238784829290036
-0.5381165527994439,-0.4404151084783449,0.2319010010258612,-0.20740072137247653,0.05841744216788429,0.09690564728825801,0.015225104487739694,-0.033294311034025685,0.9750079083640182,-0.0006517589784981399,-0.0045405800199991775,-0.003864293591407349
-0.58575196831747,-0.1463317410332404,0.36255732253329204,-0.24313374724580827,0.01809099196741804,0.10815672230473777,0.009746675429500888,-0.028785734405010067,0.968110908069539,-0.0002892016559648479,-0.005126331988316649,-0.004010625332440589
-0.6104443970878153,-0.15754508507304615,0.21099921743267785,-0.19069267229823358,0.063368555871638,0.20577023930904162,0.017115817928985397,-0.030872717297407416,0.9677663335527708,-7.820243853217003e-05,-0.005736776385404463,-0.004168170417513635
-0.47208833732755096,-0.13949211190328545,0.1546848970587656,-0.18358728765957488,0.1165468171088488,0.21695154334241296,0.022239794389795075,-0.026967733986091733,0.9688599524105301,7.648245852659559e-05,-0.0062088647227320146,-0.00430766252941692
-0.5025689893140964,-0.04299590415417369,0.0993360589229498,-0.2000637743288256,0.0903569580819,0.12148200837724342,0.01667068898549618,-0.03001520199181472,0.9723927579753313,0.0001758185174495454,-0.0067114337120461115,-0.004350658433571095
-0.5492847060725852,0.022123516950799005,0.02703419137533597,-0.14287939102457223,0.11425384989143343,0.15348923593615257,0.02780286642219569,-0.025624564479086155,0.9670286549277797,0.0002028527088248814,-0.007260718418118696,-0.0043285349166202955
-0.40273611799891124,0.16920173022405252,0.19234770819383895,-0.10503742785064109,0.0948803203418557,0.14764713746799654,0.01715241641149587,-0.02782708751360169,0.9749205457041593,0.00039520041701872035,-0.007663454536117608,-0.0041593331863962425
-0.32748587121551276,0.24552305844076588,-0.04495046517296414,-0.10521642026715991,0.06602701802918634,0.1590052569465195,0.024587907575543612,-0.03134703897767409,0.9668053281811794,0.00035024995184575625,-0.007990940407333119,-0.003913810127955477
-0.13479897247737965,0.3296671937503223,-0.12563943834845107,-0.07973254654524273,0.14410079996054884,0.10258308291924834,0.018354164278305676,-0.040459950507205716,0.9749204152570167,0.00022461051349730515,-0.008125739379810499,-0.003584142934205155
-0.17554228396023105,0.2949067618643121,-0.1972284422038399,-0.008833935515581013,0.1316261300948536,0.12206616166483887,0.014724347014772408,-0.03372480098410159,0.9650362073083303,2.7382071293465234e-05,-0.008301281663770732,-0.0032892361723408426
-0.048150646517019224,0.3015012891170211,-0.17178132699147083,0.02341201490851727,0.113316025953959,0.07541913329780157,0.022335497742923136,-0.03144770206038658,0.9726896510156838,-0.00014439925569800563,-0.008349432310287749,-0.0029877348832238215
0.17155039682173773,0.3882561102441471,-0.07648992711390669,0.05687601409206828,0.07249523717909742,0.022666641458063984,-0.0008351745778734168,-0.03302261324784095,0.9655921447020814,-0.0002208891828119123,-0.008177881913466013,-0.0025994787729796747
0.014827783137727854,0.48039794536637864,-0.3193965179454365,0.10255481343842358,0.08467309564039709,0.04583250237011225,0.024022594905685257,-0.03522947955305883,0.9686814239114668,-0.0005402857007573488,-0.008163054130328284,-0.002119080827613296
0.11823899314008572,0.4981807126876138,-0.1307898342223479,0.13050945214364454,0.12074061939594263,0.0410474171389471,0.016706400507336273,-0.028809245311426573,0.9735054330115315,-0.0006710755349796966,-0.008044815137188199,-0.001620900114925682
0.3018451436211689,0.3670061296285876,-0.08451438364011102,0.2016744819379673,0.07962784086129719,-0.05371730488809028,0.01833544290217785,-0.02490058992106444,0.965805745005546,-0.0007555899186198077,-0.00774296999356703,-0.0012538939852970946
0.3033649820701008,0.4936468910976319,-0.22331207853921886,0.1437076106560771,-0.024143937491916376,-0.0021965961644061106,0.021230193905478645,-0.02223948042605814,0.9781548824014219,-0.0009789019971590265,-0.0074396050114969295,-0.0007602470941994626
0.31685792478116936,0.2577271875888876,-0.14661756591602837,0.24286858881977846,0.0309609645488862,-0.021490656820461078,0.010650541718238076,-0.02292915117986015,0.971270185973612,-0.0011255195630750549,-0.00712274708671576,-0.000502519906610575
0.42898830629298434,0.3828416561239308,-0.04302477728090285,0.24275523094250487,-0.04436040315068335,-0.048468580280679456,0.019980094389250577,-0.03409895909067587,0.9705196489527401,-0.0011685443403559577,-0.006693758780422775,-0.0001196782504866442
0.37978970260188616,0.29658974629414775,-0.06734625873512347,0.265545380453478,-0.04448915204738984,-0.05270755569293798,0.02182089438786225,-0.04072155753312076,0.9773039367857264,-0.0012358905990910813,-0.00631396907782089,0.00017691149580750353
0.5299423851999717,0.27187556142247793,0.09708003546341257,0.2518233192917166,-0.06393371051030199,-0.05661534798572914,0.011325116748517512,-0.040115218961529704,0.9774490889734727,-0.0011388105636276687,-0.005784026692620918,0.0004487870572299815
0.4393198925820233,0.13894488297061455,-0.015723648341360724,0.25073456663880617,-0.0468521057829676,-0.11180470894832185,0.008324297259581167,-0.03228463797966776,0.9707765428308425,-0.0011545342119690294,-0.005344706800038894,0.0005877319402005961
0.5747953298276618,0.203863483734707,0.1685444030581469,0.23726384492848357,-0.0533588896930624,-0.05003942599354321,0.024353431201126534,-0.028702979916314087,0.9728888582740945,-0.0009859898089108826,-0.004769911470211233,0.0007915954239353031
0.6476150852011165,0.08831837603971045,0.17913412771066087,0.1705157788428177,-0.0687526957057832,-0.07272257229635741,0.017207663817600017,-0.035474415524916814,0.9669065844321764,-0.0008068556812002216,-0.004122296385010116,0.0008799137999750136
0.42954995864008944,0.09247347972187434,0.18451560519576163,0.16626361621061686,-0.06343104900512264,-0.05465413258166863,0.01285186521071648,-0.028979219474517474,0.9689187117667286,-0.0006223400760044601,-0.0036927464263700263,0.000972387279696888
0.5324363345063989,-0.20933526489602627,0.2197876528899188,0.1613343333662048,-0.03250763361961026,0.037076826555511866,0.02329200080073329,-0.024082257119311716,0.9605219881278365,-0.00040255242311454126,-0.003160310091863628,0.0007630520148008617
0.42053347409075487,-0.13077747493733063,0.14894984615712878,0.13228761353365676,-0.04557017846346672,-0.010862234165786274,0.014285882440152942,-0.037935368980237444,0.9706148190986308,-0.0002536025769574125,-0.002739776617772873,0.000632274539863531
0.40694404880465357,-0.18579466629383007,0.14583886476753105,0.0547084331862169,-0.04950802468471937,0.0288867078038791,0.017031995557530384,-0.037576605923910884,0.9759535544758964,-0.00010776371218988147,-0.0023328325689682193,0.00044647987356970096
0.4865737177537082,-0.34426150206815365,0.06449536205681966,0.0013665568861344398,-0.05575523579469283,0.08380562490025516,0.016558156126058744,-0.02231101964726502,0.9700989984139038,-4.32683501330618e-05,-0.0018462588512145113,0.00010221837150154727
0.4559861426878631,-0.20803232472221758,0.09163108530011466,-0.061106505922155774,-0.06705300869219254,0.04853039557802512,0.01791495637414127,-0.0272621893012744,0.9726413146614704,4.836273516705287e-05,-0.0013902727085266483,-0.00010581395322067031
0.40399798603910564,-0.1978167563588788,-0.09158806121121117,-0.04760803788901157,-0.05633277472863778,0.09519850164796433,0.023066254861015864,-0.029027126848594906,0.965318909993728,-4.322532604415831e-05,-0.0009862747224875425,-0.0003036307095795491
0.13271742862141142,-0.20178991909999733,0.04734299900221489,-0.11087581467576887,-0.04334945025795781,0.0884633607443871,0.017456569991309106,-0.031378003844191246,0.9580091192324044,4.117672958056582e-06,-0.0008535572938661312,-0.0005054206286795465
0.2724431719225633,-0.19192899421451565,-0.14262588307870364,-0.1476744789267643,-0.07575958000563049,0.12716652961173275,0.02352561109690267,-0.029200451648880486,0.9582978309672494,-0.00013850821012064706,-0.0005811141219435679,-0.0006973496228940622
0.14012630756879368,-0.2711134568381049,-0.20737408760723347,-0.15587719861868304,-0.040924951901458076,0.07595356998012531,0.014363456680646754,-0.030884787019223748,0.9603056600361415,-0.0003458822977278806,-0.0004409878143747741,-0.0009684630797321671
-0.03810314764189719,-0.23146705923594682,-0.2787320401920702,-0.09977005739693327,-0.009290032842978677,0.08888369399717079,0.013023612323029775,-0.026246964932149935,0.9663461041484803,-0.0006246143379199507,-0.00047909096201667134,-0.001199930138968114
-0.016344163468041944,-0.1747689754842272,-0.10696964307105233,-0.12203233929146118,0.053940253714905434,0.05618240461473971,0.022852715770914148,-0.026662095841063233,0.9651474449920154,-0.000731583980991003,-0.0004954351254847133,-0.0013746991144523411
-0.06666815786643998,-0.03591061396805908,-0.2900833571487142,-0.09594044948997094,-0.0061505027405267445,0.06374201052346884,0.014758540532188912,-0.02742474758008293,0.9638618827118075,-0.0010216673381397172,-0.0005621032833511532,-0.0014106097284204003
-0.11872276009485001,0.03362991967769008,-0.2808894068298945,-0.10627382619852901,0.03023735626406016,0.0862491501911315,0.015896718564709384,-0.024224957582862125,0.9681299303074409,-0.001302556744969612,-0.0006808260434460033,-0.0013769798087427101
-0.06977840744946803,0.03746861128288878,-0.3107388102027996,-0.11416912688049427,0.07591931688779942,0.05524454414719289,0.014956381379851178,-0.027326772126466125,0.9597169752587142,-0.0016132955551724116,-0.0007506044508954713,-0.0013395111974598213
-0.2424345837355511,0.12355299419082197,-0.3544575335846813,-0.12439174310557614,0.004780976492363495,0.015630425817573675,0.014486388445555026,-0.029332032869666177,0.9732315541960963,-0.001967753088757093,-0.0009930390346310225,-0.0012159582032689993
-0.3775779122164551,0.08471115058425052,-0.24013953179751518,-0.054179667051725576,0.06428152607994493,-0.025502740300372882,0.01968892793216094,-0.029039998494697832,0.9710759134231297,-0.002207892620554608,-0.0013706169468474777,-0.0011312470526847489
-0.24467797588152596,0.19519060644678674,-0.31030658297850455,-0.013755580239874898,0.04711279348232639,-0.0049275295640014375,0.012521681684184414,-0.022679967871980247,0.9696521978163332,-0.0025181992035331127,-0.0016152949227290034,-0.0009360564462379619
-0.349070091698263,0.14530000114044933,-0.23173439069456409,0.008927451421415723,0.04172637808244412,-0.09709634237046903,0.0258272948690099,-0.023194240929041734,0.9715889812478887,-0.0027499335942276766,-0.0019643650144272667,-0.0007907564450975127
-0.309915702102684,0.12095882162763225,-0.19021996618300013,0.04457443553369637,0.05575024998996059,-0.0598493029950991,0.01565932105044734,-0.027392892875803702,0.9613174628883397,-0.0029401535604106767,-0.002274280716529951,-0.0006697976234698804
-0.21213163183373804,0.14183976224117584,-0.08350661459981665,0.04420723620715427,0.08746149394183216,-0.07841873796502881,0.022482581703715872,-0.03237203016663662,0.9625989677800028,-0.003023660175010493,-0.002486412348363689,-0.0005279578612287046
-0.3526005815263276,0.24167389125040167,-0.02789533062592371,0.05518607314207656,0.0478246422585267,-0.12482931228747336,0.01283902581723706,-0.03653629800485435,0.9634481876575309,-0.003051555505636417,-0.0028390129298900167,-0.00028628396997830294
-0.3228698073010163,0.13211515333942717,0.02230540799763349,0.11725241309219939,0.03450697606357195,-0.15384287749023434,0.015688463672250224,-0.02268215676658097,0.9654838732632651,-0.003029250097638783,-0.0031618827371910326,-0.00015416881663887576
-0.3106125916332948,0.17201140494467154,0.12293860505877735,0.0935949392119737,0.03969048858492087,-0.18397908888599826,0.010028092067182134,-0.03233096377679247,0.969815406316224,-0.0029063114925800063,-0.0034724953288243275,1.78425883057958e-05
-0.16164496516220833,0.23589290434101207,0.21999078716872816,0.1556759705411652,0.02953085150950998,-0.14497292816060323,0.014675155924232686,-0.032072626083691186,0.9563724461854285,-0.002686320705411278,-0.0036341402939865357,0.00025373549264680784
-0.2434874093991709,0.2912795739249041,0.07848003536876061,0.1534529344162009,0.0007990548035887949,-0.140625678451504,0.010913439007895907,-0.029024333419110496,0.9666989072906271,-0.0026078406700425173,-0.003877627703385707,0.0005450150665717119
-0.2397124430858968,0.13505816444877022,0.3157724222817268,0.09280046621126573,-0.018467572223703044,-0.11881415039438649,0.012029257014219372,-0.03819649628741372,0.9725255984945378,-0.00229206824776079,-0.004117340146471604,0.0006800732310204823
-0.1012868817605773,0.02222799047850011,0.33688738724554645,0.1337117556336833,-0.06421265016062432,-0.16620369007923008,0.006391459183114656,-0.02861758010376122,0.9582329229626958,-0.0019551808605152436,-0.004218627028232181,0.0007023012214989824
-0.05287716685969211,-0.16449310575788278,0.2536760900184175,0.20070166311948814,-0.011132822693372024,-0.06079070657873318,0.02061734165444123,-0.022292185727630937,0.967589954705241,-0.0017015047704968264,-0.004271504195091873,0.0005378081157410996
0.03786746465129164,0.09101988909412084,0.3757296856657657,0.1479346430174466,-0.043426480374097326,-0.044605987977877244,0.01856630696166758,-0.024313385403482296,0.9676013730401852,-0.0013257750848310608,-0.004233636730440581,0.0006288280048352204
0.12948740856254856,-0.1377957759061776,0.3811426948860329,0.0918873827505438,-0.09964256394909084,-0.0013121068395121494,0.013908629707772922,-0.024546545575335102,0.9660275246161125,-0.0009446323899450276,-0.0041041493218780326,0.0004910322289290429
0.1072559507717756,-0.24395684140415486,0.271424376890074,0.08310092749094135,-0.07090978997993042,0.015341612338669227,0.01752375937216811,-0.028757384220178404,0.9673097671624233,-0.0006732080130549536,-0.003996893371106257,0.00024707538752488797
0.1923702427731881,-0.31846229446941376,0.27066521117590736,0.10655087671894808,-0.12542853832084877,0.05533409220981151,0.00521598957632482,-0.021361510903634258,0.9653045671471784,-0.0004025428018790463,-0.0038045231283330688,-7.138690694452581e-05
0.25846132941071703,-0.41977685210827204,0.1923950859920593,0.037281674595531944,-0.14488710689133102,0.03351942798356145,0.01526301512793138,-0.022478820824155546,0.9603604069394044,-0.00021014771588698697,-0.0035460617989223515,-0.0004911637590527979
0.2812927955525779,-0.4044179565221988,0.20375672496912411,0.007541347132669095,-0.1378920018224267,0.07683595453821526,0.010179554903071113,-0.033898429009398705,0.9679995596111298,-6.390990917862828e-06,-0.003264769003369774,-0.0008955817155749967
0.3302256445132995,-0.38957357177728363,0.11505645749983309,-0.04630716615429377,-0.16046232970148963,0.0944503215993598,0.02297510625359656,-0.022712264895872237,0.9559205754225735,0.00010866546658197026,-0.0029345433588564744,-0.0012851552873522805
0.336418486721559,-0.3921466901802976,0.02656125395187982,-0.10802166693703011,-0.12734194471169522,0.12090043326350622,0.01838590325439934,-0.036969833538767795,0.9698556457798704,0.00013522672053385012,-0.0025981248721349153,-0.001677301977532578
0.45119633572018025,-0.43641294944396003,-0.06721512032294216,-0.05687434000473128,-0.11745620489379462,0.07134968236346771,0.007286460262987772,-0.027525151745868084,0.9676626740863576,6.801160021090794e-05,-0.002146928536414735,-0.002113714926976538
0.3767257905907783,-0.3864936977920479,-0.07238053411769405,-0.16838780235610115,-0.09902731208946616,0.1390329734435676,0.00806982383596734,-0.022135550221773506,0.9675674447657977,-4.36893390678611e-06,-0.0017702027458239564,-0.002500208624768586
0.2254432536649052,-0.42308110406871696,-0.0405653099058816,-0.16147707168390635,-0.10834263871950725,0.14049375839725586,0.002252507496086964,-0.02068254203099336,0.9694473691434586,-4.4934243812667714e-05,-0.0015447594921590513,-0.0029232897288373034
0.1880317514936225,-0.4363375601688383,-0.147164423759514,-0.22859085294646372,-0.04431902293572931,0.10367861464905788,0.0044636060374078825,-0.031887971835271436,0.9743422710933758,-0.0001920986675721817,-0.0013567277406654288,-0.003359627289006142
0.14074328135219216,-0.27740176053208065,-0.1874078810363121,-0.19435852093574937,-0.00767766943733962,0.1825340234990805,0.005901749605230227,-0.027580123569583843,0.9578631717063765,-0.0003795065486084938,-0.0012159844593132366,-0.0036370290495382224
0.20968181045942474,-0.36865406917391075,-0.32966235586582787,-0.25580707023118976,-0.02868423492163016,0.1378155572620173,0.0022564482097090725,-0.01881601849953865,0.9670424817343901,-0.0007091689044743218,-0.001006302648853812,-0.0040056831187121325
0.22140691338606389,-0.23414310475640748,-0.17303744686590367,-0.23063241697550577,-0.08241039134443985,0.09828662723742555,0.018509672792209206,-0.021205484021359917,0.971365354452395,-0.0008822063513402255,-0.0007848957354677479,-0.00423982622346854
0.07796627158157503,-0.10002784270287263,-0.21749049926033187,-0.20435988343073924,-0.04274650612706153,0.14061059810280488,0.015567236905768419,-0.02096624286787816,0.9763089925871459,-0.0010996968506005575,-0.000706929463886173,-0.004339854066171414
0.07534799924247577,-0.11953136505001488,-0.14491701085343228,-0.18194667672613454,0.01986640468550876,0.10098222408624673,0.011888943858936298,-0.012407631543861255,0.9575143052762973,-0.0012446138614539898,-0.0006315814646436972,-0.004459385431221428
-0.08349468210143826,0.03721349161829118,-0.1902787365096395,-0.19381805680025987,-0.03074941783568498,0.09339403080593466,0.011837553896676144,-0.026780372037371485,0.9639995927801301,-0.0014348925979636292,-0.0007150761467451354,-0.0044221719396031365
-0.17978856472221275,0.108556575276927,-0.15285811520646625,-0.17435408129681845,0.0017129556710390424,0.05724627205241697,0.020866205095412618,-0.017376157539436964,0.9744237624157639,-0.0015877507131700956,-0.0008948647114673481,-0.00431361536432621
-0.08570917593955346,0.13251832341311182,0.03513881232679264,-0.08065953509945328,0.021470049806536683,-0.04981127899254021,0.008341431682894761,-0.024554907875563237,0.9634268728379667,-0.001552611900843303,-0.0009805738874069016,-0.004181097040913098
-0.2176615927217377,0.2746726647957063,0.09558867827547504,-0.053763980605541606,0.03683050492335241,0.012118369490519415,0.009186706739809114,-0.023290525404210494,0.9600103609579236,-0.0014570232225678279,-0.0011982354801286395,-0.003906424376117392
-0.3723440113011378,0.19661467456131743,0.11578027151888262,0.014414204476574242,0.09975705392272423,-0.002701761920129343,0.01795256028463655,-0.01848969799425769,0.9774460213940452,-0.001341242951048945,-0.0015705794914297772,-0.0037098097015560746
-0.4239969551446967,0.3458290918444207,0.15522829072704636,0.0474436794700613,0.06115709578689554,-0.07393499910057379,0.013357226672632606,-0.019925674318801264,0.9549612540342723,-0.0011860146603218987,-0.001994576446574474,-0.003363980609711654
-0.33606920852523037,0.3560439592648269,0.13088962046913796,0.010493557013134699,0.019740657123233023,-0.06541961148381069,0.016824186765851283,-0.027611914381322957,0.9682916690761371,-0.0010551250398527607,-0.002330645655099704,-0.003007936650446827
-0.39603531823301036,0.4803180293498038,0.25721497251673675,0.08595841301912653,0.10404689545330467,-0.02847042082904181,0.003701161651562361,-0.025086673508859472,0.9619998454738506,-0.0007979100673360241,-0.002726680973332715,-0.0025276186210970233
-0.5572267837625454,0.4512573014970201,0.07997256355932592,0.08801823048243881,0.08952471486085233,-0.048971842178114726,0.0075462867696829625,-0.022341210624141898,0.9613814312776021,-0.0007179375037766981,-0.0032839077570952606,-0.002076361319600003
-0.6155885966113228,0.3969817298931575,0.25400014656462433,0.13103269237678555,0.09667616260585754,-0.04375929005423491,0.01379443495156704,-0.023232340437893826,0.9688004781201828,-0.00046393735721207376,-0.0038994963537065832,-0.0016793795897068456
-0.6092777557973056,0.3569854025998658,0.18849286032142454,0.1283325733577365,0.08386827306313531,-0.08358993433002539,0.009057966811247172,-0.014378722597680018,0.9667430095861274,-0.0002754444968906492,-0.004508774109503889,-0.0013223941871069796
-0.5086822871218774,0.44271792986213476,0.2705435993933696,0.25229429444267526,0.11476346187607513,-0.08417818057341045,0.008589734150479285,-0.014121855662473145,0.9655257834693635,-4.900897497279622e-06,-0.005017456396625767,-0.0008796762572448448
-0.508964582383374,0.4261081413220046,0.13513650883394906,0.2675290593205711,0.08972822538908264,-0.02941430391055324,0.018148071711292887,-0.02266086332214651,0.9677451699741249,0.00013023561133666944,-0.005526420979009141,-0.00045356811592284023
-0.7057439782872578,0.46000683640641993,-0.005897891962784826,0.2625947587604027,0.06819268642686517,-0.05126630740755827,0.013593649396829423,-0.011446001613520055,0.9601236011558013,0.00012433771937388462,-0.006232164957296398,6.43872048357974e-06
-0.551344422069122,0.20876408594976417,0.0032755706742884933,0.28028662786540653,0.06986671734551925,-0.02214419697864988,0.009148375199765486,-0.025480795155885277,0.9666062982816935,0.00012761329004817311,-0.00678350937936552,0.0002152028064333439
-0.6395160546007839,0.25133602942464073,0.08727695172271985,0.1972547424834196,0.10652884088185532,0.05469654204964245,0.007205852330676823,-0.036242148242573165,0.9647550659978504,0.000214890241770893,-0.0074230254339663045,0.0004665388358579846
-0.48838246331514235,0.20224639510335868,-0.00036265531055369726,0.29569924856447827,0.00230648192252585,-0.022254761922301462,0.006689514736653724,-0.017231547493889318,0.9692828735052845,0.00021452758646033928,-0.007911407897281446,0.0006687852309613433
-0.4809881546825986,0.12633809717954153,-0.27141844603039955,0.21867904003349364,0.009739998292782145,0.03586490123073354,0.012614768173054203,-0.021063113221819526,0.9606803759935731,-5.689085957006029e-05,-0.008392396051964046,0.000795123328140885
-0.3562068404677907,-0.06778371852891671,-0.21052890957215914,0.14732147971284787,0.023416887712477727,0.01671142358365059,0.012734672459495349,-0.02401303215604063,0.9659886994552914,-0.00026741976914221945,-0.008748602892431836,0.0007273396096119682
-0.27383270773100565,-0.17549727851259672,-0.279861835032007,0.11290396866325636,-0.0004391083226586989,0.11609815132838919,0.009521026921286802,-0.026365037283808908,0.9697315421851135,-0.0005472816041742264,-0.009022435600162844,0.0005518423310993714
-0.2380610489365671,-0.21072772411787494,-0.24540421252374608,0.14425321663618657,-0.0036989760282864137,0.10672437811806726,0.012942404348402159,-0.01852647367625151,0.9692779896649928,-0.0007926858166979726,-0.00926049664909941,0.00034111460698149653
-0.11411695000911484,-0.14511895181576892,-0.37108703964575146,0.057885297213233135,0.0008980594401501243,0.07838784794921769,0.017743767370410963,-0.014340419001553983,0.9584626750873044,-0.001163772856343724,-0.009374613599108522,0.00019599565516572757
-0.07350420415392062,-0.34763407341572294,-0.27854832890085435,0.0058305189751963,-0.05555327070980293,0.06478683110913366,0.01429792838240921,-0.028366821271311442,0.9625350161174453,-0.0014423211852445782,-0.009448117803262443,-0.0001516384182499954
-0.11399269654308515,-0.1503498692412682,-0.2913531248024248,-0.009801788348571315,-0.05317763992446226,0.051957694733518696,0.005236220175216388,-0.010913987562114284,0.9694206623671296,-0.001733674310047003,-0.009562110499805529,-0.00030198828749126365
0.04749378070101098,-0.3088678703630406,-0.3759571576452171,-0.03981207532580761,-0.09042390000128091,0.11872539545248287,0.015974072462399284,-0.01668807080150682,0.9705060726041944,-0.0021096314676922203,-0.009514616719104519,-0.0006108561578543042
0.12126887479562481,-0.3303404141793235,-0.19307872175197588,-0.042798008213473286,-0.05114607834118808,0.09951189875368166,0.000694546447773222,-0.022806292323608725,0.9734501312853919,-0.0023027101894441964,-0.009393347844308893,-0.0009411965720336279
0.2070799683757349,-0.197630940535988,-0.19695446042073342,-0.06463354345118612,-0.029694297415973146,0.12383494856466114,0.0007717065891749281,-0.02022256412328761,0.9625558148177891,-0.0024996646498649296,-0.009186267875933157,-0.0011388275125696157
0.4234189478635123,-0.18419522931735885,-0.18858760621088166,-0.095412523982055,-0.04577829062317143,0.029807425478834665,0.011618188929505476,-0.014643157101447486,0.9650480903163792,-0.0026882522560758115,-0.008762848928069646,-0.0013230227418869747
0.36620969197166175,-0.18094662324983768,-0.1408226971243979,-0.08130116979220223,-0.030909877780682563,0.004851600121186387,0.00561552339248138,-0.024688215532377204,0.9725482700321708,-0.002829074953200209,-0.008396639236097984,-0.0015039693651368122
0.3909768153840811,-0.13461051317213577,-0.007410461905204743,-0.14758030096207642,-0.04725190970244804,0.022939678645120705,0.01182130094794109,-0.023375461935924643,0.9634892677998367,-0.0028364854151054137,-0.008005662420713903,-0.001638579878308948
0.43577350211283356,-0.07593089352586782,-0.007152603925700739,-0.14657716450514527,-0.05242955251179225,-0.012105844328852379,0.008559373455537278,-0.026110709003422432,0.9708600894231026,-0.0028436380190311143,-0.0075698889186010705,-0.0017145107718348155
0.549623951151945,-0.022450484069267126,0.09850123839004823,-0.13291522675107287,-0.008470939326034224,-0.05581957177638982,0.011714361378899966,-0.011979849374473831,0.9613915600908969,-0.002745136780641066,-0.007020264967449125,-0.0017369612559040828
0.6328533050594962,-0.07234620433568797,0.06324158602836932,-0.11084614709679419,-0.05133921089119765,-0.07907634236698596,0.012215078317608211,-0.019401248981434117,0.9648787638407861,-0.0026818951946126967,-0.006387411662389629,-0.001809307460239771
0.5132079907243287,-0.03141563336527621,0.21514055453346656,-0.06045066694060551,0.012378744229401889,-0.09270089686919544,-0.005445326406421869,-0.011803460827688822,0.964846111426562,-0.0024667546400792303,-0.005874203671665301,-0.0018407230936050472
0.558954005183809,0.1994002672833063,0.3434364425641466,-0.0649665063548402,-0.05680472442893888,-0.12229294018212215,0.0060389715231389035,-0.022120236812475585,0.9656473251308849,-0.002123318197515083,-0.005315249666481493,-0.0016413228263217406
0.5049377992245113,0.1818414770611651,0.36276949609074616,-0.09735742842784995,0.010462270457795419,-0.16910129308642347,0.012593285807805298,-0.01784048942277641,0.9576426537757601,-0.001760548701424337,-0.004810311867256981,-0.0014594813492605754
0.4462447969249795,0.22552965626940763,0.3774561951102808,-0.08214133251318095,-0.006979159523014437,-0.13009200632073395,0.007409430966903057,-0.010745081245472542,0.9653094251915946,-0.0013830925063140565,-0.004364067070332002,-0.0012339516929911678
0.3285052805907835,0.2740961462415817,0.2584947764012907,0.0593243679112527,-0.014819413840563848,-0.1319140156088654,0.012638115677011983,-0.019273057143231596,0.9566660040272751,-0.0011245977299127654,-0.004035561789741218,-0.0009598555467495862
0.39193160410632416,0.19219816964240172,0.2807399481623828,0.025978265775262042,0.00935648497856981,-0.1448014364867928,0.006907181402953879,-0.010210550043604228,0.9642248265364677,-0.0008438577817503827,-0.0036436301856348934,-0.0007676573771071845
0.34219064540087735,0.24959325489888545,0.187735815405574,0.09622928719033313,0.06159974042063571,-0.16229762578198112,-0.0010332686537807018,-0.018457114715450196,0.9574444475538947,-0.0006561219663448086,-0.0033014395402340166,-0.0005180641222082989
0.4351048985583539,0.2919101357174123,0.2458613889970097,0.0738517936667559,0.06489793789255484,-0.08577817437505904,0.010084027435543342,-0.014410775566645462,0.9639760458834187,-0.0004102605773477989,-0.0028663346416756626,-0.00022615398649088658
0.3427914677536384,0.22010217918889327,0.1318888898556401,0.0435823978058264,0.042010022694063356,-0.04157070213673997,0.006056023354059043,-0.022940147117411862,0.9642420107334646,-0.00027837168749215876,-0.002523543173922024,-6.051807301993312e-06
0.19456849056433229,0.2989004116063089,0.10674001420305324,0.12727063883449627,0.018454301937056706,-0.06587057013290366,-0.00047175786807157095,-0.018389008866424868,0.9678082282383272,-0.00017163167328910556,-0.002328974683357692,0.0002928486043043156
0.17808089423547208,0.18359573490135886,0.08553958775153502,0.1617510426974583,0.0477390146922786,-0.014988491419461616,0.011863962552849341,-0.0022304223683071982,0.9702036730084969,-8.609208553757055e-05,-0.00215089378912222,0.0004764443392056744
0.0826970835550666,0.1735885351888509,-0.0137557770646464,0.17053305553884288,0.04887709302642612,-0.023692623653367807,0.010154527099844431,-0.018976245467050172,0.9604368341444217,-9.984786260221695e-05,-0.0020681967055671538,0.0006500328743945254
-0.08046652710499964,0.14476675428410185,-0.004240121533953707,0.10677076961643073,0.06775643726165907,0.002702455940433243,0.0022695055117371334,-0.01249498174000015,0.9628504448955614,-0.00010408798413617066,-0.002148663232672153,0.0007947996286786273
-0.15996877832209147,0.1438435308191196,-0.08421053600371776,0.11225920195081028,0.025306406059577284,0.06001293740552654,-0.0011118768730455511,-0.021597391427748143,0.9580131185998717,-0.00018829852013988843,-0.0023086320109942447,0.0009386431594977468
0.024858118920875166,0.08806490530918487,-0.06962733917020499,0.15859756782596596,0.003976978443326414,0.0936766913934384,0.013238171288033406,-0.01603327929519037,0.973131745703646,-0.0002579258593100934,-0.0022837738920733694,0.0010267080648069316
-0.14788729131113948,-0.208155765083652,-0.19581165560092323,0.14065593607362117,0.009343669596641922,0.0872298539671154,0.011585491224267115,-0.008962293919761116,0.97237333878587,-0.0004537375149110166,-0.002431661183384509,0.0008185522997232796
-0.14950448373606529,-0.12835525836797354,-0.21018102004362416,0.0640084884866634,0.04969371708749673,0.11789390822567389,0.0058297971508527715,-0.015714534275627096,0.9612515670910151,-0.0006639185349546408,-0.0025811656671205743,0.000690197041355306
-0.2028065063716814,-0.19918383869361286,-0.09325582825253025,0.07131964961504425,0.05088728779991618,0.11770213648541077,0.0037553113159445577,-0.014363528602741005,0.9630131061101533,-0.000757174363207171,-0.0027839721734922557,0.0004910132026616931
-0.20040188552849514,-0.3700415742245674,-0.2535782701910214,-0.014103530270306142,-0.05215762836147125,0.16980944890920616,0.005227250103057138,-0.01772963327948303,0.9606844816553345,-0.0010107526333981924,-0.002984374059020751,0.00012097162843712573
-0.3132128026512801,-0.3881634777759203,-0.14376733935676878,0.006148950885599235,-0.0064843543733598364,0.1799931574854448,0.005680513492818716,-0.024180128630718993,0.9606253991956951,-0.0011545199727549611,-0.0032975868616720314,-0.00026719184933879456
-0.3839135151958913,-0.31424781187072415,-0.1607577189817167,-0.06338293502670655,-0.005374811978870631,0.16098496699319909,0.013886062198587061,-0.01472945971380486,0.967471191956132,-0.0013152776917366778,-0.0036815003768679226,-0.0005814396612095188
-0.30548596742784595,-0.5396801849056656,-0.21207849321450117,-0.041225907686917904,-0.03842667732067729,0.16123029795938976,0.01170230743107063,-0.016163674968339328,0.9639470316772926,-0.001527356184951179,-0.003986986344295769,-0.0011211198461151843
-0.26839884565853334,-0.5142865019841258,-0.12296128872270223,-0.1036173193415596,-0.07287778582577784,0.19149102657450368,0.00392715653730223,-0.01264546774624675,0.9557336243089829,-0.0016503174736738813,-0.004255385189954302,-0.0016354063480993103
-0.3409364914844352,-0.3191951550622137,0.03790809577296938,-0.15961967697822033,0.024089567095447392,0.156126426514664,-0.004671629502392086,-0.02796496659355087,0.9640260862105046,-0.0016124093779009121,-0.0045963216814387375,-0.001954601503161524
-0.27211447521135934,-0.545462063515875,0.048089284566801414,-0.2202800939946032,-0.09751815672809622,0.07751818832128747,0.014613356646585146,-0.014509811444201758,0.9719751563015071,-0.0015643200933341105,-0.004868436156650097,-0.002500063566677399
-0.35643495817466087,-0.33877665714633454,0.1173426389545292,-0.1458851730636554,-0.08531414732966958,0.13231022621070762,-0.001378503801839251,-0.01747345036140017,0.9631424513048849,-0.0014469774543795812,-0.005224871114824757,-0.0028388402238237334
-0.2789061117313075,-0.2295818513929394,0.1947968399534271,-0.2078175776145103,-0.08194146259337208,0.01845903693582568,-0.0037076891630725244,-0.017597562032617826,0.9659484713218941,-0.0012521806144261544,-0.005503777226556065,-0.0030684220752166726
-0.20870181308094615,-0.3594418069569382,0.22005583333744652,-0.19225085844774698,-0.0977536323312137,0.011779026588193622,0.006938957589821871,-0.012654093511274401,0.9728964451072517,-0.001032124781088708,-0.005712479039637012,-0.0034278638821736104
-0.23751714410332117,-0.25263702450817327,0.20752574238685814,-0.21868606499453871,-0.08287106414017885,0.05111854507580178,0.008837171850306256,-0.010530660399064551,0.9647678978397968,-0.0008245990387018495,-0.005949996183740332,-0.0036805009066817836
0.04538828430227158,-0.07566442880815062,0.08597712617799005,-0.21796550525557978,-0.10461231881050162,0.00306876658078061,0.00791496878545016,-0.012375918859383215,0.9715692539814546,-0.0007386219125238596,-0.0059046078994380614,-0.003756165335489934
0.022504562113636384,-0.10209828925876833,0.19624501547852796,-0.2649476656750313,-0.08488229246785879,-0.11009551430133295,-0.000414969706859389,-0.019227208772966957,0.9617925381074681,-0.0005423768970453316,-0.005882103337324425,-0.003858263624748703
0.13759900540786785,-0.03385114263005935,0.2151035970458283,-0.24589613187142695,-0.07222330830306849,-0.05919127576661835,0.008995467242494923,-0.013452684714531113,0.9644934476314443,-0.0003272732999995033,-0.005744504331916557,-0.003892114767378762
0.08651003112795533,0.0776351851541511,0.17279170068087105,-0.14933019971962147,-0.11764178698382485,-0.1115105341735226,0.00963539317583871,-0.003350957781527242,0.962486651620974,-0.00015448159931863222,-0.005657994300788602,-0.003814479582224611
0.11208164667370973,0.2342091256347163,0.07755016125233305,-0.15929726319642026,-0.09526188931979242,-0.07245849678827974,0.0018254747888393876,-0.006972840241700037,0.9652610245069445,-7.693143806629919e-05,-0.005545912654114892,-0.0035802704565898943
0.1342979478780966,0.11539406947945124,0.11025489705713645,-0.08657874713963123,-0.0855882368441031,-0.07288293175793824,-0.0033037457001229816,-0.019208597934412264,0.9600154478194508,3.332345899083728e-05,-0.005411614706236795,-0.003464876387110443
0.2761104146386711,0.25196770218966186,-0.03241680830506724,-0.06669061572125423,-0.021682476683573784,-0.11780295615306734,0.0019667054999491828,-0.01065941190722702,0.9566662473345523,9.06650685770033e-07,-0.005135504291598123,-0.003212908684920781
0.1939328516791724,0.252695346700432,-0.05512317759995546,0.06371190027124833,-0.01550673401792559,-0.10446698123697208,0.005152850099300482,-0.012806628713044879,0.9620262838591361,-5.421652691418543e-05,-0.004941571439918951,-0.002960213338220349
0.3049146382780938,0.3439939948377301,-0.12077958500466791,0.028945451114191112,0.012384586306820922,-0.04642289974904591,0.0042239264089751335,-0.012267347346184199,0.9654132104953205,-0.00017499611191885335,-0.004636656801640857,-0.0026162193433826187
0.37937991462989873,0.4085648239075508,-0.2746141552831566,0.06552783384061642,-0.02744316222285253,-0.025449393187894347,-0.006227112338696572,-0.014338970652618504,0.9619441560373336,-0.00044961026720200995,-0.004257276887010958,-0.0022076545194750683
0.44636323233165487,0.3779264100391839,-0.20524640006452458,0.08178827962364969,0.019576941657648447,-0.014571237119622478,-0.007741672661246351,-0.013376094561910317,0.9571150677272603,-0.0006548566672665346,-0.003810913654679303,-0.0018297281094358843
0.31498989455527754,0.5038033634309902,-0.1651329080055787,0.1881994383656832,0.010901492226647543,-0.0065953200585856745,4.347158313913659e-05,-0.011603779500438702,0.96343680726072,-0.0008199895752721131,-0.003495923760124026,-0.0013259247460048942
0.386299567256022,0.34682685226664156,-0.42869976657556186,0.18902018811434693,0.030747281261078913,0.07157727981154917,0.0036601462001064466,-0.010172923587657543,0.959801576498205,-0.001248689341847675,-0.0031096241928680038,-0.0009790978937382524
0.2980884752964344,0.23800065850884444,-0.31355439402646423,0.2212815895157473,0.05655600353317945,0.04469774360022305,0.010414238231137435,-0.013359299311617834,0.9717869939769184,-0.0015622437358741392,-0.002811535717571569,-0.000741097235229408
0.2989652583374755,0.3838950412231571,-0.3384420275841488,0.26950145978545464,0.05246584650769885,0.07649872503737674,-0.005742893922332905,-0.007190338871987601,0.963730625862938,-0.0019006857634582882,-0.002512570459234094,-0.0003572021940062509
0.247183977215387,0.259526238786167,-0.2864134887155307,0.25656615663536736,0.06493504279229931,0.07892955472728085,-0.004883094719589497,-0.002879326579245423,0.9637199693994917,-0.002187099252173819,-0.002265386482018707,-9.767595522008387e-05
0.09434457495940031,0.29582229282054157,-0.3202642159381071,0.25186076434096116,0.05484459143091876,0.08670228818994269,0.004034014433715903,-0.008572029786267437,0.9693790104025406,-0.0025073634681119263,-0.002171041907059306,0.00019814633760045772
0.013985944452026472,0.3395288157374776,-0.23068297780583397,0.280632176523467,0.07262083010810326,0.0848729609169563,0.007757135664529905,-0.005056085241788175,0.9675993180894266,-0.0027380464459177602,-0.0021570559626072796,0.0005376751533379354
0.08641327463989038,0.13563794722803285,-0.2732576785168946,0.2745007926574128,0.08556239133350571,0.1372898431532324,0.004491403122761392,-0.017118490621913326,0.9621525687772556,-0.0030113041244346547,-0.00207064268796739,0.0006733131005659683
-0.03798434268263465,0.18783018783790614,-0.12882109904275893,0.20422011948706156,0.08159412226390761,0.048859612706726965,-0.003029185011864069,-0.0053330397719680775,0.9651990459894704,-0.0031401252234774138,-0.0021086270306500243,0.0008611432884038744
-0.06385636928685237,0.02923450296469687,-0.09118296622408006,0.18676825726898422,0.11633819725918752,0.11089904051901635,0.004654813107410165,-0.005271856989576388,0.9644838288882731,-0.0032313081897014937,-0.002172483399936877,0.0008903777913685714
-0.09077056900584432,-0.03637339395031729,-0.05938963765519212,0.1397962244150841,0.1241984523454496,0.16280212711616587,0.0008868288832825743,-0.011846824925834028,0.9625045797811277,-0.0032906978273566853,-0.002263253968942721,0.0008540043974182541
-0.11626497957667631,-0.16552685421302452,-0.012123387795655083,0.15966028718944686,0.09869011846535342,0.09818957180929966,0.010841065565392936,-0.01144041092891666,0.9597078660552149,-0.003302821215152341,-0.0023795189485193973,0.0006884775432052297
-0.3759047898896932,-0.1715369434119923,0.2747364264889466,0.16505900561889048,0.10365998822410052,0.08097527251253774,0.009503632768273342,-0.00779224270460593,0.9548581070264752,-0.003028084788663394,-0.0027554237384090907,0.0005169405997932372
-0.3006161434782738,-0.17962323451493947,0.286377794090048,0.05008029922967126,0.06117412286195677,0.06624131772278644,-0.0027000988944951383,-0.01828136906969382,0.9660866732965966,-0.0027417069945733464,-0.0030560398818873648,0.0003373173652782978
-0.44911921721906045,-0.2922338221569707,0.23066013915300806,0.05746961122136955,0.10915177172527045,0.01763739660935947,0.01384188110026197,-0.009666133817321078,0.9643140108298613,-0.002511046855420338,-0.003505159099106425,4.5083543121327116e-05
-0.49598464670810216,-0.18926981372241808,0.27308638304644184,0.019955191011872188,0.05208647601430226,0.021678801358181482,-0.0006510046017392493,-0.00972987939970433,0.9658214851214451,-0.0022379604723738963,-0.004001143745814528,-0.00014418627060109096
-0.42257541433317114,-0.26224200844352247,0.3745976454369935,-0.05426758731591048,0.06832915873303343,-0.05499400072862957,-0.005190896204411603,-0.006624294925462498,0.9567078852402086,-0.0018633628269369028,-0.004423719160147699,-0.0004064282790446135
-0.523643975419522,-0.11702713258662528,0.4050350650704775,-0.10793772293572707,-0.014396390431608654,-0.13360376001879154,6.487575223826478e-05,-0.006111166171369193,0.9518535418760182,-0.0014583277618664253,-0.00494736313556722,-0.0005234554116312387
-0.5914490225727612,-0.2890789128349155,0.31529936578653056,-0.045100558249537584,0.01108318964759575,-0.09407741171687525,-0.006401948595279459,-0.005647967061267036,0.957290472913973,-0.0011430283960798947,-0.005538812158139983,-0.0008125343244661542
-0.5089998352711872,-0.3559543139510273,0.24964419580572245,-0.09123048536421677,0.01146204749182762,-0.12250339347350457,0.005340051612262202,-0.01746647843974381,0.9633287241463119,-0.0008933842002741721,-0.0060478119934111695,-0.0011684886384171814
-0.6113979207852882,-0.14534302616491263,0.18283171915983376,-0.10302863865256418,-0.06820416040545392,-0.14287281166572874,-0.0008328456619783344,-0.008507416423685405,0.9527704115414537,-0.0007105524811143384,-0.006659209914196458,-0.0013138316645820941
-0.4324721398077489,0.03965256240248077,0.22469209649264946,-0.13404089308059852,-0.05077827170789972,-0.12480282598071561,0.007158767293178042,-0.009179632280749915,0.9616056867085272,-0.0004858603846216889,-0.0070916820540042075,-0.0012741791021796131
-0.5146177855821968,-0.05713457134722959,0.15590617157923398,-0.1543927659199888,-0.032851434638768856,-0.13298730584557839,-0.001626550912047217,-0.0013773680355984941,0.9612928342060221,-0.0003299542130424549,-0.007606299839586404,-0.0013313136735268428
-0.4922797909180614,-0.05211829436874236,0.14269658889459005,-0.1630751051690716,-0.021145843758911303,-0.13696872990542688,-0.0035667158959882114,-0.007325503084775495,0.9707037880621792,-0.00018725762414786487,-0.008098579630504466,-0.0013834319678955851
-0.3898016037869525,0.008451954317371346,0.06616802623323813,-0.11027890133005132,-0.1200726060289292,-0.11429680583319331,-0.00661800665747708,0.0007437319098837361,0.9547751200656458,-0.00012108959791462674,-0.00848838123429142,-0.0013749800135782137
-0.34449595290230933,0.032706207580817964,0.008841667466993325,-0.11391577623645756,-0.06892719895900667,-0.13127086475739014,0.00604063059387045,-0.004004231180344814,0.9600647122114189,-0.00011224793044763342,-0.008832877187193729,-0.001342273805997396
-0.27548929164326164,0.0200071133469229,-0.09968479070999561,-0.0946837325170043,-0.03633632384100163,-0.13175689394290357,-0.0009998360196942198,-0.009774603992865793,0.9621738636224639,-0.00021193272115762902,-0.009108366478836989,-0.0013222666926504731
-0.28411394819470015,0.12135891097478324,-0.11241750701396082,-0.014193170759485112,-0.0914982636290763,-0.03215769430042135,0.002968563942107167,-0.0013426586183174754,0.9692553278070875,-0.00032435022817158985,-0.00939248042703169,-0.0012009077816756896
-0.26719884383089243,0.19547795860957154,-0.1539358491306953,0.013866369148974524,-0.10662467608244298,-0.09872340843790438,-0.00030832289495892325,-0.0027877712173151755,0.9613208073281996,-0.00047828607730228515,-0.009659679270862582,-0.001005429823066118
-0.12993082332837919,0.34524853055940474,-0.11376595373456744,0.06972013668868604,-0.06911697642370443,-0.07059943086742244,0.0008327294610008407,-0.008779706420356869,0.9654631503066546,-0.0005920520310368526,-0.009789610094190961,-0.0006601812925067134
0.0395596285147878,0.25261253945288986,-0.33097655779478474,0.06949491450931616,-0.10691653528627348,0.02770523032498662,-0.0019107334450898434,-0.015519135466632725,0.9603255738482205,-0.0009230285888316373,-0.009750050465676174,-0.0004075687530538235
0.04775883807147621,0.38951754831232155,-0.035031724180349416,0.09492863883234008,-0.013667495254965127,-0.0027523780755039032,0.0006673444022785438,-0.007956270311743298,0.9605252665732693,-0.0009580603130119867,-0.009702291627604697,-1.8051204741501904e-05
0.1909521566438343,0.36165053024456517,-0.08105740042518991,0.06416402562062082,-0.06251846458683293,0.03604455053560913,0.002451658910896221,0.0067824128103281265,0.9570218685539077,-0.0010391177134371765,-0.009511339470960861,0.0003435993255030633
0.23031131518295542,0.2589125990325135,-0.2040128006667324,0.07628310965219587,0.031706414179089364,0.0547108275853151,0.0015611990397083983,-0.011490548387869913,0.9581109902991739,-0.001243130514103909,-0.009281028155777906,0.0006025119245355768
0.2639176152973951,0.28423133481184853,-0.22548457515597303,0.186111700234776,-0.005754911476502084,0.12385478171675147,0.005762826029329973,-0.009237788896485234,0.9573683489855955,-0.001468615089259882,-0.009017110540480511,0.0008867432593474254
0.4187953499353143,0.19311845872062386,0.015025398582380278,0.14137833682834416,-0.01800746899318267,0.12271806582566029,-0.007804619010408709,-0.004288824587887503,0.9640776439311067,-0.0014535896906775017,-0.008598315190545198,0.0010798617180680491
0.4423550326085653,0.15392936912155514,-0.03198922949704851,0.14988114919905476,0.016822749351030373,0.1309613011400416,0.005614654536399973,-0.0064362340647809374,0.9560471426238248,-0.0014855789201745503,-0.008155960157936631,0.0012337910871896042
0.4925589339452537,0.04576369075764036,0.11934235463523939,0.14672503892078875,0.07304768253190362,0.17235593866844287,-0.006547408522643428,-0.00794779004683121,0.9588754932645076,-0.0013662365655393108,-0.007663401223991379,0.0012795547779472448
0.44850116851667465,0.06586385641564357,0.026253208388663303,0.1217179069177361,0.048744993533648945,0.12285319052211603,0.0001769193125735945,0.0027130770988952565,0.9618309150820976,-0.0013399833571506475,-0.007214900055474704,0.0013454186343628883
0.5148233629372356,-0.08076148518690389,0.044013177731481216,0.15209882733015465,0.013605296773156604,0.15405184834077568,-0.0010908294969481495,-0.0043707697204271425,0.9556777386940364,-0.0012959701794191664,-0.006700076692537468,0.0012646571491759845
0.5560679098121087,0.026312259458711906,0.2075217114265322,0.13859619354227587,0.04932588310856963,0.13480389446616411,0.0068078653957471405,-0.0061059421027617085,0.9556283356325193,-0.0010884484679926341,-0.00614400878272536,0.0012909694086346965
0.5594433524124516,-0.15510322407172106,0.1278108401908037,0.08444578300977577,0.075369752976666,0.14997927816496087,-0.00018666134867027556,-0.009512067031329355,0.9557522022305137,-0.0009606376278018305,-0.0055845654303129065,0.001135866184562975
0.4985337192673952,-0.29636960991445754,0.11626402250448598,0.01329478480976673,0.027451623773644056,0.17325112830389555,-0.0055107875495908655,-0.010937395456023503,0.9613575737494753,-0.0008443736052973444,-0.005086031711045512,0.0008394965746485177
0.5628120034444413,-0.40260090610771176,0.18144139042534854,-0.010519310958019262,0.08337933147127943,0.07975040528147105,0.011677619611247764,-0.008882029016525999,0.9602565460939537,-0.0006629322148719958,-0.00452321970760107,0.00043689566854080596
0.5035521481230496,-0.4178704788379099,-0.05230402243555632,-0.06848616087403078,0.0697725960855503,0.025540101811936923,-0.007425550961037523,-0.006658406514670022,0.9575653297236746,-0.0007152362373075523,-0.0040196675594780205,1.902518970289602e-05
0.42235590208750895,-0.3345656645631808,0.11039655747503671,-0.02669284910583595,0.03981668007024843,0.06134430043934934,0.0048172913338720875,-0.005952134053483613,0.9584967576004684,-0.0006048396798325155,-0.003597311657390511,-0.00031554047486028483
0.4889929281073456,-0.49378727181228743,0.18899810128924494,-0.08449160375712607,0.06513963986687692,0.011332160365749593,0.001442508903488983,-0.0016604646165960537,0.9644773135390464,-0.0004158415785432705,-0.0031083187292831656,-0.0008093277466725722
0.38351064601684315,-0.5348689381639619,0.13850027642537982,-0.15352544856296202,0.03017083195756001,-0.013347021089492981,-0.0026334016935393462,-0.004185351548256297,0.9623897395595994,-0.00027734130211789067,-0.0027248080832663222,-0.0013441966848365342
0.1587640764982348,-0.457202970042785,-0.05590732209890262,-0.17216990710305338,0.011386726869201204,-0.010664458503083686,-0.0003565713027678544,-0.012379874085808797,0.9632141094466233,-0.00033324862421679324,-0.0025660440067680874,-0.0018013996548793194
0.09433622880102763,-0.4112897939241967,0.11404742769877739,-0.20644941932400912,0.03258333815048259,-0.06487530741756564,-0.001638563666846636,-0.00010264499594680706,0.9621216791125559,-0.00021920119651801584,-0.0024717077779670598,-0.002212689448803516
0.13949726076923064,-0.3395846675594779,0.012409230258748988,-0.2363137470329882,-0.0029363626673251063,-0.0979082124180806,-0.0002227762074547006,-0.0026650559912578743,0.9541240678721531,-0.00020679196625926683,-0.0023322105171978288,-0.002552274116362994
0.1279216936961894,-0.2620128810475837,-0.15218971336131248,-0.2161853820589556,0.01663138308335557,-0.07255284250874434,-0.0054852182473429534,0.001106278043395587,0.9658726061722287,-0.0003589816796205794,-0.0022042888235016393,-0.0028142869974105774
0.0562970574566331,-0.24813675031853427,-0.1716716260756419,-0.22160495940250366,-0.009656608873595155,-0.08941944361350818,0.006053855050192488,-0.008375751167739181,0.9635786264696296,-0.0005306533056962212,-0.0021479917660450066,-0.0030624237477291116
-0.12248922600658417,-0.33015708475331246,-0.24088329831164748,-0.17289020047975273,-0.10320324025258411,-0.05479747802780636,0.00598174585039303,0.000897341951969771,0.9591806618586424,-0.0007715366040078688,-0.0022704809920515902,-0.003392580832482424
-0.04049983627508266,-0.15310247115630518,-0.20781295390288276,-0.2194197628307977,-0.03803068915760682,-0.07289721613645599,-0.006183608660407967,0.0013120053732404028,0.9548052096627115,-0.0009793495579107515,-0.002310980828326673,-0.003545683303638729
-0.162240111758747,-0.23287408129475526,-0.315381290753767,-0.20393488069239102,-0.09063183406897862,-0.04163350971727946,0.002000064182405933,-0.0034846466434345033,0.9571332572766645,-0.0012947308486645187,-0.00247322094008542,-0.0037785573849334845
-0.24543305700965845,0.08729120867188697,-0.26337381370282315,-0.14047302546069762,-0.0962342502714738,-0.09747888623147087,-0.010447504739433202,0.003919530204248589,0.9571386800673215,-0.0015581046623673418,-0.0027186539970950785,-0.0036912661762615977
-0.23957048358034821,-0.018603213760415446,-0.16350177622307874,-0.14402464166649812,-0.06329853052497225,-0.05674523725697559,-0.0009792045300724469,-0.004261693156405709,0.9609633426150668,-0.0017216064385904208,-0.0029582244806754267,-0.003709869390022013
-0.2941486584152028,0.06266309314020616,-0.2892239680753243,-0.12861775063519593,-0.08904556890543,-0.046856261263173805,-0.004619956534677963,0.005014695357411108,0.9682967597922819,-0.0020108304066657453,-0.0032523731390906294,-0.003647206296881807
-0.25147180144553966,0.2031146046829236,-0.2307072799225865,-0.14667353527830745,-0.13563222748524353,0.0031735032783672835,-0.00025450246077343957,-0.002098275039671291,0.9658253156364948,-0.002241537686588332,-0.003503844940536169,-0.003444091692198883
-0.3374292933523247,0.31148521014390834,-0.2286749608385983,-0.07557307075513654,-0.12412917542270703,-0.01197244851773578,-0.0017958829838410368,0.005040006483030195,0.9547729082012805,-0.00247021264742693,-0.003841274233888494,-0.003132606482054975
-0.28440283287165025,0.3094260609161622,-0.11539913300251707,-1.0570286138513602e-05,-0.07764369078385329,0.0856487334020747,-0.0007825647928160675,0.00047232553070686626,0.959321861147738,-0.002585611780429447,-0.004125677066760144,-0.002823180421138813
-0.31947321767335335,0.281989344720327,-0.06985106397033514,0.05734957785896664,-0.13298562578362105,0.07038470218087187,-0.009390605558033182,0.007271698865249299,0.9616519184527759,-0.0026554628443997822,-0.004445150284433498,-0.0025411910764184856
-0.31764895712735025,0.4823533268919403,-0.004407513911922428,0.07786337837124009,-0.11434675791403331,0.15677932720340232,-0.0003798809661493133,-0.00015846182189870918,0.9568402327366222,-0.002659870358311705,-0.0047627992415608476,-0.002058837749526545
-0.3761383173016556,0.45742705018123175,0.199484648605117,0.13829833537538616,-0.11959035581628699,0.06613986488055339,-0.002745102719814909,0.0056181926394807055,0.9660409421192344,-0.0024603857097065876,-0.005138937558862503,-0.0016014106993453134
-0.24595605912797147,0.4702787276720258,0.13085021523196946,0.17313439544698864,-0.1333109015082492,0.10026415959178918,0.008232272842670882,-0.007316960459092749,0.9552090832998188,-0.002329535494474618,-0.005384893617990474,-0.0011311319716732875
-0.3375298778599858,0.4459455041135499,0.01306811144952258,0.1920269295866976,-0.04490089602604259,0.08682470775119464,-0.006982259994412954,-0.0006461821592304855,0.963528299976382,-0.0023164673830250956,-0.00572242349585046,-0.0006851864675597377
-0.1955934965625822,0.32002628147220546,0.2089494500076436,0.23636714907718795,-0.04723213082538126,0.11635132090595411,-0.008180915428041198,-0.0018562874627142973,0.9596063854255271,-0.002107517933017452,-0.005918016992413042,-0.0003651601860875322
0.008032518569152547,0.2825159202647368,0.3631464840023856,0.26530171401189984,-0.03036066219673216,0.10277628828933298,-0.0010525821327515396,-0.002310606713646727,0.9636690921010925,-0.0017443714490150662,-0.005909984473843889,-8.264426582279539e-05
-0.16426426628912222,0.3697600222555143,0.3109027438500679,0.24671576234771989,0.0036821735857426943,0.11810228976089952,-0.0019947028525487444,0.008552263856124332,0.9662823003130345,-0.0014334687051649985,-0.006074248740133011,0.00028711575643271893
0.08270719420756292,0.28205094772768485,0.25100866418585205,0.2352226655471789,-0.016381540493814583,0.07568783652566408,-0.010519712927520231,0.005660279495142745,0.9602908101553337,-0.0011824600409791465,-0.005991541545925448,0.0005691667041604038
0.14391879201793406,0.19163389458535454,0.27489954920604764,0.2101803177590677,0.04288592251570891,0.03514284413243394,-0.0013183670400543322,0.00772279836635212,0.96408200044371,-0.0009075604917730988,-0.005847622753907514,0.0007608005987457584
0.094953345916269,0.08713764019113543,0.16376473506599334,0.23620976323475873,0.07481237294336171,0.046297009295896786,-0.009128945608853654,0.006063186706082059,0.9531127197214705,-0.0007437957567071055,-0.005752669407991244,0.0008479382389368939
0.16089792801192432,0.03763476738796028,0.3276466404707356,0.25730299421344716,0.06083957112396963,0.02097788144867655,-0.0001546336456597951,0.002538910208189299,0.9557433700873088,-0.0004161491162363698,-0.00559177147997932,0.0008855730063248541
0.14210718237303005,0.03343208700969351,0.15914348277668294,0.24688267119053742,0.07404747704525746,-0.01773662825176752,-0.010519554800891426,0.001724085323354069,0.9579592388431336,-0.00025700563345968687,-0.00544966429760629,0.0009190050933345476
0.31374158373167615,-0.14281309802655,0.15486165712671826,0.1499365823488582,0.06314962064012669,-0.07042582770803875,0.002567487782214153,0.0017253777030205504,0.9669400191658187,-0.0001021439763329686,-0.005135922713874613,0.0007761919953079974
0.25360867373814905,-0.02982908522663051,0.1296321048131204,0.06191048538370846,0.09008064513301471,-0.06626148978520346,-0.0039673749965691354,-0.0006176335606496754,0.96677777500611,2.748812848015181e-05,-0.004882314040136466,0.000746362910081367
0.4204237528393567,-0.053290142597382156,0.2736956480143659,0.055555045558226504,0.06045194846964453,-0.1384991467810875,-0.01304238710739858,0.009730969489011367,0.9654650584311839,0.0003011837764945178,-0.0044618902872971085,0.0006930727674839848
0.4881756621189838,-0.23392966177020563,0.07461851219697119,0.04736799196886154,0.09515441150343157,-0.1247114415933628,-0.00914100624703544,0.010090087035248175,0.9593115518326341,0.0003758022886914889,-0.003973714625178124,0.0004591431057137791
0.3422178267804082,-0.23754767134125435,-0.15623695830056689,0.01561228916054551,0.06377193847650783,-0.19209933761262252,-0.006645704996233857,0.006368475612784608,0.9600099239226869,0.00021956533039092205,-0.003631496798397716,0.00022159543437252476
0.2672699475151533,-0.17619561691973384,-0.0051142566813138085,-0.008906226017866545,0.10958696852899304,-0.0824526046140911,-0.008973538634425317,0.006413531589200509,0.9537049506792364,0.00021445107370960824,-0.0033642268508825633,4.53998174527909e-05
0.3238511766534449,-0.16460287960614495,-0.13534532995290138,-0.06223555743131494,0.08777027156428426,-0.15560774027275004,-0.005641960530309093,0.006998913170093404,0.9513118225976223,7.910574375670683e-05,-0.0030403756742291184,-0.00011920306215335405
0.34967510465301466,-0.37682257019615994,-0.09687939404473975,-0.09499033294052622,0.07757854560017331,-0.16305758584091112,-0.002738349476189693,0.002207858982423377,0.9605823330188223,-1.7773650288032932e-05,-0.0026907005695761036,-0.000496025632349514
0.20438582458878912,-0.13351654172606853,-0.3480495858032169,-0.08536498769633064,0.10083401411440311,-0.1854492086825712,-0.009538965042046916,-0.00044261189615254354,0.9542458957835643,-0.0003658232360912498,-0.0024863147449873143,-0.0006295421740755826
0.17428655422237277,-0.17680209580273795,-0.14926307464502245,-0.11170554546317239,0.04195956123324831,-0.1463461446752149,-0.0029178789361211893,0.0097049853875287,0.9625711325221187,-0.0005150863107362722,-0.0023120281907649414,-0.0008063442698783206
0.12163981742262091,-0.10366170929432879,-0.13094136093888065,-0.14957006315949473,0.055152295672477494,-0.14439255369304066,-0.0019441168526899647,0.00682033108974616,0.9521703635357536,-0.000646027671675153,-0.0021903883733423207,-0.0009100059791726494
0.17451227680028467,-0.08654233547064809,-0.178214337796934,-0.13414709241908188,0.07446900372714418,-0.014139822014390848,-0.0008809696749414999,0.0019853569632169417,0.9629781884230904,-0.000824242009472087,-0.0020158760965420363,-0.0009965483146432974
-0.014597058097116727,-0.11049117882399498,-0.16309688096323524,-0.1944460672193375,0.03020728853469667,-0.0415360193217991,-0.012292982094786142,0.001626150258391466,0.954593476831526,-0.0009873388904353222,-0.002030473154639153,-0.0011070394934672926
0.06835097554467479,0.012346378821584784,-0.26721717940979917,-0.1259652938364328,-0.03188621582778075,-0.014537452152755712,-0.0049640436063009856,0.010658523130597234,0.9651404009676031,-0.0012545560698451214,-0.001962122179094478,-0.0010946931146457077
-0.011886896923869596,0.13021979440289833,-0.10697275556967556,-0.055805437775016425,-0.02897565941802143,-0.029710848338532346,-0.009689997429876574,0.006775194654757899,0.9661982014454645,-0.001361528825414797,-0.001974009076018348,-0.0009644733202428095
-0.2116559150059975,0.09909991000260837,0.03686992228813915,-0.07732768490111462,0.007727292301518066,-0.005517294385578327,-0.009095082306915844,0.012423742485983248,0.9613411963818551,-0.0013246589031266577,-0.0021856649910243454,-0.0008653734102402011
-0.2298947107021445,0.12402747503148048,-0.032740559806545715,-0.07954748283742148,-0.036486283793016834,0.09995773147925906,-0.0058033238149301876,0.0033104406868489913,0.9646142094563294,-0.0013573994629332035,-0.00241555970172649,-0.0007413459352087207
-0.2606490142534915,0.15308940289600415,0.1865854167651682,0.020182259070949962,-0.020258838270246375,0.10758737462103837,-0.005913429262948567,0.01003135001564822,0.96013069679827,-0.0011708140461680354,-0.0026762087159799817,-0.0005882565323127166
-0.3333189074742631,0.24108842122618082,0.13110772260723247,0.020558647191237803,-0.029011752515724437,0.13486667238750424,-0.015065433016891384,0.010378646383873135,0.9616087834352848,-0.0010397063235608028,-0.0030095276234542445,-0.0003471681110865357
-0.21933493441950674,0.1774426871212598,0.06366690668110814,0.05034279469218784,-0.04887353313997701,0.15832991263387705,-0.009144929720429363,0.013604702041598318,0.9676890268094218,-0.0009760394168796948,-0.0032288625578737514,-0.00016972542396527588
-0.3211554726020783,0.20623673948705745,0.04332055825192618,0.06700992021029924,-0.10647138268074194,0.13992764512131656,-0.009985332092719857,-0.0011248399495954221,0.9522194892532511,-0.0009327188586277685,-0.0035500180304758296,3.651131552178158e-05
-0.5357904865947986,0.3237675434436752,0.21858772753479672,0.08595737650911561,-0.10504860544700334,0.18106725403592497,-0.006926279772120146,0.003512879535837738,0.9598957015215467,-0.0007141311310929718,-0.004085808517070628,0.00036027885896545677
-0.5442042156937358,0.30729349873559486,0.05939378152968744,0.16073459877298746,-0.060411114345531966,0.16235151530954067,-0.0044059611024444886,0.004412968433722219,0.9603313726094258,-0.0006547373495632844,-0.004630012732764364,0.0006675723577010517
-0.5909146561992469,0.271101808364119,0.17659269950272255,0.14879186142310102,-0.07281425553312189,0.19913073955536104,-0.0056709345661271685,0.011072568527041337,0.9665576744545457,-0.0004781446500605618,-0.005220927388963611,0.0009386741660651706
-0.5715156948716371,0.14455945483222582,0.16017920753356427,0.15485480561063786,-0.05923966684708963,0.16929480226952315,-0.00920311857161459,0.0029631623100720445,0.9592805549082786,-0.0003179654425269976,-0.005792443083835248,0.0010832336208973965
-0.6365069696254854,0.17623106674624284,0.061061404970112976,0.21437121263550343,-0.03719335040071156,0.1576703994278124,-0.013160498069097679,0.010859528575769647,0.9651180508485597,-0.0002569040375568846,-0.006428950053460733,0.0012594646876436394
-0.6326025907174495,0.18296211390190592,0.08775207351911196,0.23260405017373584,-0.07041072636958559,0.10190654697977534,-0.0067597315143660165,0.0030370557183373465,0.9486065480942985,-0.00016915196403777263,-0.0070615526441781835,0.0014424268015455453
-0.545476042567188,0.05592143633868735,-0.039843279294180065,0.1206849046107297,-0.09173518786418032,0.12429617109958895,-0.006800066141860412,0.0038499634649557914,0.9606340323361944,-0.0002089952433319527,-0.007607028686745371,0.0014983482378842325
-0.5020042212453308,0.021268552389353428,-0.04917716814980543,0.11555383416312473,-0.040571597701566486,0.030656661202337815,-0.010666059036658904,0.010034250631080422,0.9733930668123085,-0.00025817241148175815,-0.008109032907990704,0.001519616790273586
-0.41686925284989773,-0.025408905989308103,-0.03518452583282442,0.08316948301257528,-0.0881926713647741,-0.004277748395576273,-0.019238694320192724,-0.004635337013332696,0.9647785100085271,-0.00029335693731458255,-0.0085259021608406,0.001494207884284278
-0.5232984262503944,-0.19830667495124232,-0.12470804251608186,0.12565570522495925,0.02086735037516317,0.06032804165648838,-0.010401937714942678,0.014554115537228282,0.9622397056532578,-0.00041806497983066447,-0.009049200587090994,0.0012959012093330356
-0.4735349797745704,-0.27949702057502895,-0.14641479973276555,0.13512337235699734,-0.02433462410973556,0.004503665653543751,-0.017962248587431093,0.002036829944329459,0.964474388852813,-0.00056447977956343,-0.009522735566865564,0.0010164041887580067
-0.3848723246015172,-0.32996168690420635,-0.3263574413016349,0.06824478971144222,0.022810157473985807,-0.04114651481977855,-0.015077925948647087,0.001884025031502477,0.9559875808989414,-0.0008908372208650649,-0.00990760789146708,0.0006864425018538004
-0.28148938659361605,-0.4060606879904772,-0.2435165494842477,0.049426131973919346,0.03513688569817862,-0.02932924204310102,-0.00442976619866157,0.01261205388047014,0.9562335554890649,-0.0011343537703493126,-0.010189097278060697,0.00028038181386332315
-0.10022782907863206,-0.30210037398140605,-0.13598769276895883,-0.08016466139885307,0.021594098256391928,-0.055882097599557666,-0.012667331890745509,0.005516011824507124,0.9688920539878921,-0.0012703414631182715,-0.010289325107139329,-2.171856011808293e-05
-0.07008442806328566,-0.4127147496182277,-0.35916856936853725,-0.01499388056361134,0.019726583571254667,-0.1088389024032288,-0.012271262299373592,0.013734416042017314,0.9555721839617578,-0.0016295100324868088,-0.010359409535202615,-0.0004344333097363106
0.06450623582256051,-0.3149511252269253,-0.2852863171947366,-0.11035407171823937,0.03008464444858117,-0.062469758165340374,-0.012283327335247354,0.01013336958209546,0.9653838993156384,-0.0019147963496815455,-0.010294903299380053,-0.000749384434963236
0.1950593884888306,-0.48408189967185966,-0.296479860758594,-0.14367251185067845,0.01834773304100986,-0.06866146908185017,-0.0016935431801046383,0.016036540979778996,0.9529330024131693,-0.0022112762104401396,-0.010099843910891223,-0.0012334663346350956
0.07300664373974781,-0.3913843669316087,-0.2538281777118434,-0.24915634677178572,0.034287525291573175,-0.07371858465229553,-0.00841334048255434,0.018495795602906786,0.960993958909409,-0.002465104388151983,-0.010026837267151475,-0.0016248507015667044
0.23283263390474607,-0.378274025289581,-0.21148361720091097,-0.2630723046642407,0.011443477584954053,-0.029342806976158015,-0.01421077732700858,0.007346198542717827,0.9592357116816896,-0.002676588005352894,-0.00979400463324673,-0.002003124726856285
0.3758506634998232,-0.38859596262253915,-0.07283274255922167,-0.18091044628037406,0.03578645396058067,-0.029735479827761986,-0.007288861400190333,0.012124344946982217,0.9497602135666375,-0.0027494207479121157,-0.009418153969746906,-0.0023917206894788243
0.29928554970325694,-0.430375464002859,-0.0034262256779930694,-0.22678517332302953,0.02015779173476341,-0.057100537179745066,-0.013489920140631615,0.01062100209853863,0.9704572470947771,-0.0027528469735901085,-0.00911886842004365,-0.0028220961534816836
0.5538896840738102,-0.24705800941838837,-0.043491293432448994,-0.24776888103532838,0.07978445820949963,-0.014158490769235534,9.903777554674462e-05,0.007376559255962309,0.954356153270486,-0.0027963382670225575,-0.008564978735969838,-0.0030691541629000716
0.5039838820527538,-0.2681774153014485,-0.047995317479390176,-0.21637720077637035,0.015482502797443242,0.054374173037939004,-0.014820621349994614,0.016772660555863114,0.9552346390639569,-0.002844333584501948,-0.008060994853917083,-0.00333733157820152
0.660825937080681,-0.2536595403961241,0.1392075436560633,-0.17129384176902962,-0.011714947487093598,0.014643354666793134,-0.005752970086915932,0.020117568927881316,0.9506354127836899,-0.0027051260408458844,-0.007400168916836403,-0.003590991118597644
0.5313010646101228,-0.16809707505647448,0.19248506219261113,-0.21609377992421436,0.008911067801576581,0.07506290729801786,-0.0054455320543863395,0.011066646739002456,0.9633452378604116,-0.0025126409786532734,-0.006868867852226281,-0.0037590881936541186
0.5714589527086296,0.04350451526905086,0.2505735071409309,-0.1914380526577885,-0.017481046056302657,0.0740278967547281,-0.011068015940869043,0.011618085695811606,0.9581074491891022,-0.0022620674715123426,-0.006297408899517651,-0.003715583678385068
0.5894231820195327,0.12480432313737005,0.30541026754560824,-0.0992947684580369,-0.012466046807208725,0.05249425356030936,-0.006224506373192946,0.014971421112371151,0.9583498289724803,-0.0019566572039667342,-0.005707985717498119,-0.0035907793552476977
0.6513292586174328,0.27487853083363056,0.43256536957553215,-0.10605118955400039,0.019153339376210953,0.07299936350209413,-0.009593390536201053,0.013857823599203432,0.9594750460330173,-0.0015240918343912024,-0.005056656458880685,-0.003315900824414067
0.4808915188460873,0.3376824177086888,0.35216017061534205,-0.07180450627621765,0.004813590228722862,0.09521882311958381,-0.011260434161877927,-0.00019058647703773524,0.9565806324905719,-0.0011719316637758602,-0.004575764940034597,-0.002978218406705378
0.5053336473697266,0.31199270776319105,0.3072748937651933,-0.016994943604999597,-0.04373732379581201,0.08882937199956163,-0.012688389212382,0.0051861899754280984,0.9629258623094334,-0.0008646567700106669,-0.00407043129266487,-0.0026662256989421866
0.3108798311239194,0.32689382548070156,0.3966109730016135,0.023684692985895622,-0.006841334139877493,0.09555689003478841,-0.01603795229818573,0.008845013458259988,0.9589994081395794,-0.0004680457970090534,-0.003759551461540951,-0.002339331873461485
0.4366266295518835,0.35581813934675455,0.28769573011147476,0.11310364604173616,-0.11218642449174071,0.12234153855414669,-0.011101717688839594,0.012789486452684264,0.9617468270696617,-0.00018035006689757862,-0.0033229248319890676,-0.0019835137341147305
0.20515447492785005,0.3045946281570394,0.13941598469397906,0.11100692914632262,-0.10526083577811479,0.08990471001693091,-0.0019071954346872085,0.016987998050151148,0.9588632868195053,-4.093408220359954e-05,-0.0031177703570612176,-0.0016789191059576913
0.2982158997400404,0.4721355451847629,0.16943960873957975,0.17405530843041472,-0.08165026560808623,0.025925611891633733,-0.006111241481522776,0.008401664379231321,0.962629001954629,0.0001285055265359802,-0.0028195544573211767,-0.0012067835607729284
0.2938060871177649,0.4761577018504893,0.25030784942721795,0.1913025998141219,-0.11625628779898285,0.11145638796590158,-0.004847458110566201,0.01999218069380558,0.9690019004989917,0.0003788133759631982,-0.0025257483702034117,-0.0007306258589224391
0.16000344174884662,0.44076769854291986,-0.0070409930273259425,0.22936461633600663,-0.10126357921345829,-0.05865932947435116,-0.010646125632105836,0.016609406002595507,0.9657899438145637,0.0003717723829358723,-0.0023657449284545653,-0.00028985816037951917
0.07855071860713435,0.40366962387176225,-0.13533201803464667,0.17292022019486583,-0.07654169282899084,0.050908066335347085,-0.012842993714169883,0.015207241829436148,0.9537018347269484,0.00023644036490122556,-0.002287194209847431,0.00011381146349224308
0.04714803499130283,0.30544206103597865,0.032022843582114865,0.22461531481419647,-0.029461211047478376,-0.05977790644857637,-0.021153288902554336,0.02008449120316835,0.9633556033946419,0.00026846320848334044,-0.002240046174856128,0.0004192535245282217
-0.1130122268572041,0.3304205562128325,-0.09592594455554505,0.3093935678320385,-0.10223329343914507,-0.04921464938419117,-0.010494413901544168,0.01323689375865348,0.9600075655336122,0.0001725372639277954,-0.0023530584017133326,0.0007496740807410542
-0.20623396480757547,0.2612912996895956,-0.13391041413931637,0.24812347581287514,-0.1383645532636642,-0.10344150108610749,-0.009594678363814994,0.01437802064871757,0.9565146040970384,3.8626849788479025e-05,-0.0025592923665209077,0.0010109653804306498
-0.1610415995896609,0.07749967840727695,-0.1172697021752406,0.224927363558307,-0.05698688078609463,-0.067597935287124,-0.014128578831973845,0.01501418401901862,0.9694341915700596,-7.864285238676158e-05,-0.0027203339661105684,0.0010884650588379268
-0.18944526825417968,0.08051576650001295,-0.22260447180881351,0.19795406488613115,-0.08616135105069812,-0.14556520924169924,-0.016455906563905925,0.003101394975068802,0.9608889193836764,-0.0003012473241955751,-0.0029097792343647485,0.0011689808253379397
-0.24844213266352683,-0.007402065445092865,-0.26161146318132134,0.1827401278394996,-0.12366935455514005,-0.08965539810823324,-0.01711504741882231,0.01203133721948502,0.9611747167570827,-0.0005628587873768965,-0.003158221367028275,0.001161578759892847
-0.321005393395235,-0.03355334989425435,-0.19514107507434872,0.19528679655279674,-0.056869212074283644,-0.10139374376701919,-0.012318295634682348,0.012097244232838002,0.9566428275705868,-0.0007579998624512452,-0.0034792267604235104,0.0011280254099985925
-0.33495704231863616,-0.12900337715545118,-0.13048653839197494,0.18661279757949784,-0.01670074208855673,-0.15696886190868692,-0.01105158933122135,0.006117626645699486,0.9567909785506932,-0.0008884864008432201,-0.0038141838027421467,0.0009990220328431414
-0.30935216882358707,-0.06459633402267984,-0.07805068892741447,0.13548172239121067,-0.016714447491906027,-0.14945751369071936,-0.015191379559964035,0.017883571646333342,0.9607061914657873,-0.0009665370897706347,-0.0041235359715657335,0.0009344256988204615
-0.2868252453665012,-0.16006248903557455,-0.0668395089819501,0.06823589276091802,0.011012786337180426,-0.15136033406767832,-0.010084525802960166,0.01722702461707156,0.9630280995548256,-0.0010333765987525848,-0.004410361216932234,0.000774363209784887
-0.2724070186392928,-0.2108005323070703,-0.15511631949360666,0.01397013535526628,0.04419911526085817,-0.10265987261903164,-0.011355435500258726,0.012331405910663267,0.9588455721309046,-0.0011884929182461915,-0.004682768235571527,0.0005635626774778167
-0.23983016971784696,-0.30180831271380526,-0.04829554789681623,-0.012207716021987617,0.04797411940682033,-0.12410942400439769,-0.01104924617479205,0.02539432251617063,0.9600928669564472,-0.0012367884661430076,-0.004922598405289375,0.00026175436476401137
-0.3732002099594189,-0.2599945712772599,-0.0292384252300713,-0.0033315139809906545,0.07774209863830145,-0.07301950123281048,0.0038151317101994178,0.025579488570603243,0.9565035333748964,-0.0012660268913730788,-0.005295798615248794,1.759793486751482e-06
-0.3030721771093277,-0.29900987909697974,0.07893870363708631,-0.09150199152329344,0.11621987707136754,-0.06933793229794184,-0.011997301528424976,0.019272609498038634,0.957812306202813,-0.0011870881877359925,-0.005598870792358121,-0.0002972500856102283
-0.2515831039163877,-0.2199096810889865,0.057081621312481574,-0.10593027213001359,0.01801201103405438,0.007543580563979047,-0.009380385430513618,0.023723824213098425,0.9554703483851439,-0.0011300065664235108,-0.005850453896274508,-0.0005171597666992147
-0.22030505932872263,-0.1406532739160898,0.16868738554061785,-0.1468073378378802,0.10383455270556587,0.04304800654723981,-0.012851375673099491,0.0227499520994079,0.9610744420053855,-0.000961319180882893,-0.006070758955603231,-0.0006578130406153047
-0.11818562753895244,-0.22998324668814463,0.18430218145079671,-0.1260868355094525,0.04591561652312206,0.038906645364737966,-0.012755569023276311,0.023661105853150573,0.9589465912616537,-0.0007770169994320963,-0.006188944583142184,-0.0008877962873034492
-0.2285269525590547,-0.22520273479451108,0.20578152423426893,-0.11536874432150804,0.07810746944784264,0.07274962097186465,-0.018577992984898182,0.02675224431677648,0.9488397090263349,-0.0005712354751978273,-0.006417471535701239,-0.0011129990220979603
-0.11233620966163993,-0.05448847921610773,0.21911956564746876,-0.15867434120727744,0.08355452118313732,0.12357807146044064,-0.012531816825289739,0.007851245811838858,0.9554307753206618,-0.0003521159095503585,-0.0065298077453628785,-0.001167487501314068
-0.04449144521829599,0.04386528424249757,0.03628791975431647,-0.10883016783618396,0.09350923870986232,0.15986017473630626,-0.011379440484213708,0.013854746727406157,0.952539017335933,-0.000315827989796042,-0.006574299190581174,-0.0011236222170715705
0.16174424873907206,0.1616208615472729,0.23623793210383176,-0.13553865834477838,0.10311969547794213,0.09830899813706022,-0.01795307586752773,0.021535408405047297,0.9547576424150164,-7.959005769221022e-05,-0.006412554941842103,-0.0009620013555242976
0.09555964145415746,-0.09699434330323489,0.19177851341379767,-0.08942345108503236,0.08792206735365327,0.09479694666311665,-0.01597671878198527,0.022432453979053357,0.9674533176615795,0.00011218845572158745,-0.006316995300387946,-0.0010589956988275324
0.16501904645682586,0.03124733775032136,0.0349014355007732,-0.05188533326578829,0.0794158969457628,0.18526508163728836,-0.012709318066365325,0.01410866128118058,0.9615679427971003,0.00014708989122236065,-0.006151976253931119,-0.001027748361077211
0.2530190739406378,0.09867487667044858,-0.006362760281689583,-0.06569875042433736,0.10974249583687906,0.14895420939583584,-0.013263666124253566,0.00976391416104952,0.9638940271154751,0.0001407271309406711,-0.0058989571799904815,-0.0009290734844067625
0.23027024223858866,0.007612177553585953,-0.11593323559108956,0.0030913231053156243,0.0898414348292761,0.17296229726417875,-0.014180107409853272,0.008586845106785241,0.9620752004683849,2.4793895349581515e-05,-0.0056686869377518935,-0.0009214613068531766
0.36828524288841696,0.2581624296540184,0.04781228825191526,0.03508675083687457,0.020232420275140845,0.13855498793372864,-0.012351801777408767,0.027277815395826667,0.9553132052393731,7.260618360149677e-05,-0.005300401694863476,-0.0006632988771991581
0.17967074022051194,0.33375647057220675,-0.10422494695406545,0.056373737150082565,0.016536549960354825,0.1353009055818738,-0.0037344476878862862,0.026122601037249393,0.9630925888961407,-3.161876335256868e-05,-0.005120730954642964,-0.00032954240662695145
0.4531408633344883,0.27469795837301325,-0.10698306940727757,0.057213853708331805,-0.013864907992964682,0.02173874951772057,-0.008570353378991761,0.01857551335374366,0.9678560069961789,-0.00013860183275984624,-0.004667590091308476,-5.4844448253938144e-05
0.35978227664629364,0.2376363435218479,-0.11959038036365666,0.1092910828507569,0.048599212349932794,0.08154374077500218,-0.026230306531494642,0.0228903676784343,0.9670756633926949,-0.0002581922131235029,-0.004307807814662182,0.00018279189526790977
0.2453928820648462,0.21487689228997614,-0.2121247632965803,0.10397077407977516,0.024858209301079397,0.03537759663243345,-0.01125336214641824,0.018362324760490992,0.9739922613741259,-0.0004703169764200832,-0.004062414932597336,0.00039766878755788593
0.3192279683288772,0.24403602905623212,-0.3045385429905401,0.13554106251623182,-0.06335757308365358,-0.015978260013785557,-0.01320595527906177,0.018295904487641363,0.9641711734911207,-0.0007748555194106234,-0.003743186964268459,0.0006417048166141181
0.3013531153098157,0.15839556711372865,-0.2656149630239674,0.17198693515751765,-0.07923551855363037,0.009110454668569978,-0.008418504638601238,0.027305608758905194,0.9596935437710227,-0.0010404704824345907,-0.003441833848958643,0.0008001003837278467
0.26912669383465426,0.07730782872942071,-0.28221970424126824,0.1464918869244416,-0.06767633574091593,0.0199788796046088,-0.027147064266385173,0.017479228437078186,0.9688722708924596,-0.001322690186675859,-0.003172707155123989,0.0008774082124572673
0.1469942185782837,-0.02114707341034741,-0.16235782096299017,0.1537136575553484,-0.0862539046765866,0.010883882554144691,-0.016664419721434995,0.029648492384376147,0.9583073645978443,-0.001485048007638849,-0.0030257129365457054,0.00085626113904692
0.12492378759974167,0.10039658322071207,-0.17905006908302878,0.1910969880823415,-0.07404957514757912,-0.1109830503012567,-0.02242274502106573,0.022077649491149688,0.9614065110829154,-0.001664098076721878,-0.0029007891489459636,0.0009566577222676321
0.09575875913803512,-0.12186643586595684,-0.18114832065795036,0.15973457803866825,-0.05554277535737459,-0.09337812763266573,-0.012750303910678641,0.013625697089137127,0.9623642493632083,-0.001845246397379828,-0.002805030389807928,0.0008347912864016754
-0.0813356117688604,-0.2157974276925189,-0.13779722699759295,0.10122352316873748,-0.02003631036875738,-0.031925176826816136,-0.012780920211303712,0.01399768395135096,0.958137433652172,-0.001983043624377421,-0.0028863660015767886,0.0006189938587091564
-0.07591225848822233,-0.17074263609159795,-0.16068894107579482,0.07176603890755785,-0.030905909148999836,-0.10316182775812863,-0.011721900855946044,0.027726272200257272,0.9603441851301998,-0.0021437325654532157,-0.0029622782600650104,0.0004482512226175584
-0.11248218662506076,-0.18664290729274519,-0.10384938923947942,0.0477982801110682,-0.0676454219844432,-0.06364943464865232,-0.02107102822552865,0.02850528688639785,0.9599382882416271,-0.0022475819546926954,-0.0030747604466900714,0.0002616083153248132
-0.06840565243693547,-0.3788662833479314,0.07315970744571235,-0.008179304262844644,-0.07858740078953406,-0.08422094507208246,-0.01824060630413065,0.01521593792521475,0.960239659472085,-0.0021744222472469834,-0.0031431660991270067,-0.00011725796802311817
-0.24906998665865515,-0.3757757857146506,0.17994608994037675,-0.012627514791983,-0.05522848237088699,-0.06678637554262863,-0.017257909323265333,0.017087325619253475,0.9485985750089675,-0.0019944761573066068,-0.003392236085785662,-0.0004930337537377687
-0.32680224909478484,-0.44309510732082674,0.19545688843266548,-0.052958403268151016,-0.003811171578033167,-0.04628080424708577,-0.019545871718007958,0.02251155352967522,0.9616795064939875,-0.0017990192688739411,-0.0037190383348804468,-0.0009361288610585956
-0.3357187237763988,-0.38848490412233455,0.16119079388224727,-0.09365421888671721,-0.0004117278547481505,-0.023330335530381108,-0.016709665026594222,0.02655810027854536,0.9504298298420749,-0.0016378284749916938,-0.004054757058656845,-0.00132461376518093
-0.3655093595123361,-0.47253302026485333,0.2623956984629289,-0.11926807020686937,0.035001550744286236,0.032196755952426485,-0.01572090137999513,0.0274763664195968,0.9543015949896486,-0.001375432776528765,-0.0044202664181691815,-0.0017971467854457834
-0.5201383743119492,-0.4458805603627001,0.2768465614714507,-0.18529629431262076,0.01686031841117669,-0.0028280189287815238,-0.016106201883772396,0.023677583074999245,0.961573707394284,-0.0010985862150573143,-0.004940404792481131,-0.0022430273458084837
-0.5200993695355696,-0.32068686651889994,0.3113817885093561,-0.2142539610746081,-0.014152656407953861,2.781406756740927e-05,-0.020787000817977252,0.021466742744899063,0.9638598084861785,-0.0007872044265479581,-0.0054605041620167,-0.0025637142123273835
-0.3677358781071497,-0.4425764264793005,0.3461453771140263,-0.1901135191532635,0.0314303331532998,0.06632438392207451,-0.01596636772646755,0.022657161438855333,0.9710354528615169,-0.00044105904943393177,-0.00582824004012385,-0.003006290638806684
-0.6207639418938811,-0.3531640473746807,0.26319723911574694,-0.2033197568615359,0.0050641744067009345,0.0634024388239355,-0.006901449298912192,0.026869092834641704,0.9580476628054362,-0.00017786181031818484,-0.00644900398201773,-0.0033594546861813648
-0.5728377002815593,-0.3274531677209799,0.3549661755674993,-0.18551103246190945,0.02244904083060558,0.07500472292852323,-0.018176402600085267,0.02376138336536136,0.9584951119549036,0.0001771043652493145,-0.007021841682299291,-0.0036869078539023444
-0.5238214234146377,-0.22394866437596667,0.20537383862049613,-0.19546850185725975,0.05249088514922945,0.10428316269941125,-0.008135505493014413,0.027379691614381568,0.9602940273833469,0.0003824782038698107,-0.007545663105713928,-0.003910856518278312
-0.5942895327055365,-0.10090662897293422,0.08826237117061132,-0.22811281417153118,0.06542599966302344,0.11939219559402776,-0.015396823226354769,0.024031005940569596,0.944028175468237,0.00047074057504042195,-0.008139952638419464,-0.004011763147251246
-0.5518080507887517,-0.1494817188234563,0.16669668441558502,-0.22203060716941964,0.07220234507188181,0.13821747217820798,-0.020197729422519687,0.026059652493728803,0.956310634544353,0.000637437259456007,-0.008691760689208216,-0.004161244866074702
-0.4060591462801611,0.027869723010502567,0.1282355710925934,-0.14837758093394732,0.06953677787144785,0.08355107675791942,-0.021258354823873414,0.03289816603915974,0.9534098618565892,0.0007656728305486004,-0.009097819835488378,-0.004133375143064199
-0.5020716323691482,0.11746039936839606,-0.036629554399554475,-0.1831370817766818,0.07758298967369945,0.10527519144623908,-0.01526418331966973,0.01871495387984111,0.9577647586938636,0.0007290432761490459,-0.009599891467857525,-0.004015914743695803
-0.23451939714181697,0.1633802108723913,-0.033616989218773305,-0.1426040786177054,0.02611422195045925,0.07843508878930362,-0.01853016618507888,0.022399946566924518,0.9566044943246734,0.0006954262869302726,-0.009834410864999343,-0.003852534532823411
-0.2984020116489286,0.2316375774149424,-0.06997137249279291,-0.08005512622955535,0.04681911120103144,0.043001128714859664,-0.01776059564016175,0.030754937868814215,0.9646141374540229,0.0006254549144374796,-0.010132812876648271,-0.003620896955408469
-0.348445226540396,0.2694894642458504,-0.10181670365217756,-0.015930230210627616,0.08234784210331679,-0.0039013312319963415,-0.021429437049316987,0.030157270839600285,0.9565069723274026,0.0005236382107853021,-0.010481258103188666,-0.003351407491162619
-0.0839417801690979,0.3122780346951072,-0.11312761594873183,0.008034435490033357,0.08898881540362875,-0.010079375309162015,-0.021523114253002677,0.017981788141113658,0.96710184250703,0.00041051059483657024,-0.010565199883357764,-0.003039129456467511
-0.030968616299448234,0.2913532619585883,-0.020721542368168144,0.05092094887089839,0.05130989021552102,-0.07522529092589116,-0.01678878563553953,0.025075755021739855,0.9571558518211835,0.0003897890524684021,-0.010596168499657213,-0.0027477761945089232
0.15354852917707773,0.4604200360703886,-0.19376431316689996,0.09392526770670495,0.01244839277537582,-0.05687577598896592,-0.02517767817432364,0.034956495563341045,0.9621945427163063,0.00019602473930150212,-0.010442619970480134,-0.002287356158438535
0.035288577656185524,0.4219647189828989,-0.16528680624568393,0.17017345076863633,0.0018697413693913919,-0.04608929361463356,-0.01861810713539416,0.027134830725096464,0.9580028865270714,3.0737933055818176e-05,-0.01040733139282395,-0.0018653914394556358
0.3052620682757293,0.4928937163348288,-0.17735250985936576,0.1414934213935016,-0.05251248405052424,-0.0711524785122575,-0.00754514038709124,0.025714239453320926,0.9570955525047591,-0.0001466145768035476,-0.01010206932454822,-0.001372497723120807
0.21616831555890198,0.45497696296851053,-0.1261795545611324,0.16838871857451737,0.0072101474813549594,-0.1257294102550913,-0.012676299814135053,0.02553192354282172,0.9596799811052794,-0.00027279413136468,-0.009885901008989319,-0.0009175207601522964
0.31150492372452127,0.5615860523916062,-0.12845720992534035,0.18397926447594515,-0.07163970824423183,-0.11028153270812885,-0.015160544348420936,0.026644146227469162,0.9605789621992523,-0.0004012513412900204,-0.009574396085264798,-0.00035593470776069014
0.32811906722088874,0.46594275458910556,-0.05975208670764105,0.24651746208033246,-0.034904678779472904,-0.17111056430108695,-0.010369268880787891,0.022556169595793915,0.9596616140680023,-0.0004610034279976614,-0.009246277018043907,0.00011000804682841542
0.4024369603804571,0.4137676695245376,-0.14482284597865352,0.24762310445507127,-0.11312405265361862,-0.11030303768763554,-0.022540674051782013,0.02994932178498304,0.9592491444989395,-0.000605826273976315,-0.008843840057663449,0.0005237757163529531
0.5174485635235438,0.3207391313110035,0.04251016685639611,0.24174878757844379,-0.041657965265446614,-0.12524396398869905,-0.0261316747246785,0.021915713134476503,0.9519876165349135,-0.0005633161071199188,-0.008326391494139905,0.0008445148476639566
0.379850085479705,0.27655204017493606,0.055692780388119326,0.22345031713689328,-0.0618712371569596,-0.1503377178304509,-0.015215833921358586,0.02724427259282348,0.9607751285421571,-0.0005076233267317995,-0.0079465414086602,0.0011210668878388927
0.5869320996352644,0.18011270129342977,0.0742380448899468,0.1986387659260462,-0.09035010108396654,-0.08832429280192443,-0.021589105462250274,0.02977673263061629,0.9592456637735918,-0.00043338528184185275,-0.0073596093090249354,0.0013011795891323223
0.5797778582654262,0.042955887469214374,0.1768481642767375,0.16804861661892748,-0.10639808155590158,-0.1253547540114207,-0.01825403594888336,0.027827769247011136,0.9618764489074323,-0.0002565371175651153,-0.00677983145075951,0.0013441354766015369
0.636665503131382,0.04960876882542742,-0.006698489433795862,0.20683276054122052,-0.10094382889303236,-0.08972331945866648,-0.019618834834927476,0.028534197813122993,0.9621547141211938,-0.00026323560699891116,-0.006143165947628128,0.0013937442454269643
0.49101531567528045,-0.06294588515715242,0.17495392519437786,0.09617090829299318,-0.12425579014846544,-0.09737761781408193,-0.018069027813954152,0.03083930402920612,0.9588101978036768,-8.828168180453329e-05,-0.005652150631952848,0.0013307983602698116
0.44453340107504713,-0.1896740021052541,0.22750952959802023,0.08117554340351346,-0.08295481841253635,-0.017829220553669874,-0.02937706225406508,0.026005553905588154,0.9591976831105834,0.00013922784779348698,-0.005207617230877801,0.0011411243581645576
0.409244230891791,-0.19420147192483958,0.2707853642176924,0.08037610908345691,-0.12823314394944474,0.02414749541672006,-0.021209847536781085,0.02713836418821502,0.9637952806796976,0.0004100132120111793,-0.004798372999986009,0.000946922886239718
0.4502100179075398,-0.14973504276653865,0.27052110968737164,0.029076171836283145,-0.057387311074521344,0.04237674970314261,-0.02373146450871441,0.024584401061526956,0.9698404100762928,0.000680534321698551,-0.00434816298207847,0.0007971878434731794
0.5159680093751544,-0.1739651290343785,0.07273536969700617,-0.0350418194346085,-0.0790266192064598,0.10518238969079195,-0.015779925851122343,0.024569933595781905,0.9516487911336989,0.0007532696913955572,-0.003832194972703315,0.000623222714438801
0.3867635665378346,-0.3179707891594088,0.08843670222443217,-0.030167861833489067,-0.04971552876776699,0.05079958930678775,-0.015689084543643823,0.025530003031972465,0.9644988796791483,0.0008417063936199893,-0.0034454314061654807,0.0003052519252793922
0.29935001266467565,-0.32515425844379703,-0.1283049906751459,-0.14496401396040895,-0.07469453043846777,0.08220597957232946,-0.018026954371748796,0.02834967863578837,0.9582036414801893,0.0007134014029448435,-0.003146081393500805,-1.9902333164404875e-05
0.20605059985088306,-0.27548300992009656,0.003668616604038673,-0.06480813997644237,-0.02124962306339241,0.13770585354349277,-0.01308813043208347,0.02903391417493972,0.958793417018698,0.0007170700195488823,-0.002940030793649922,-0.00029538534308450146
0.11073862123840841,-0.24834419098551724,-0.13159826182705753,-0.07640124531553134,-0.0682518249601742,0.1735068452297768,-0.016073376577178458,0.031744213873395405,0.9675849345620999,0.0005854717577218247,-0.002829292172411514,-0.0005437295340700187
0.1397094168688785,-0.3266537761509482,-0.15461909061219115,-0.149243943733386,-0.0410243678308595,0.2031222260302793,-0.00559344592653465,0.02973523005154377,0.9584042689773669,0.0004308526671096336,-0.0026895827555426352,-0.0008703833102209669
0.15614276457922624,-0.2214188861228473,-0.14391949811471677,-0.11482518980221987,0.008649319984396265,0.06982664163606565,-0.018902175195219296,0.025323521318730717,0.9614617830905319,0.0002869331689949168,-0.002533439990963409,-0.001091802196343814
-0.09382925748492768,-0.23262878139143725,-0.1963749752139611,-0.13691298825370857,0.05018132961947464,0.13844399645232508,-0.014689786191491883,0.0297667330553994,0.961240808711006,9.055819378095567e-05,-0.0026272692484483368,-0.0013244309777352512
-0.12325951775913888,-0.0867371755958408,-0.45066943611523913,-0.15593227559398035,0.08101628305410258,0.1274999720692461,-0.0166147760574479,0.03384424632213707,0.9665151314702595,-0.0003601112423342835,-0.0027505287662074754,-0.0014111681533310922
-0.24332900573593247,-0.10392024909987851,-0.3582927914959467,-0.13478054965285471,-0.025448365785667768,0.1828516583047691,-0.01742423629624082,0.02193720982959981,0.9590810772810793,-0.0007184040338302302,-0.0029938577719434076,-0.0015150884024309706
-0.1455427780568211,0.11088410882221973,-0.3099392607849288,-0.04974497858488302,0.0398607999247199,0.08059684180218782,-0.015048785272571776,0.027466840597452462,0.9649146398964884,-0.001028343294615159,-0.0031394005500002286,-0.001404204293608751
-0.17641218759746924,0.15174045583942997,-0.4123926411026161,-0.05811737698158422,0.10741416942828068,0.08756565746383176,-0.01933044826223677,0.029914142659862208,0.9756750835121126,-0.001440735935717775,-0.003315812737597698,-0.001252463837769321
-0.3157003913150997,0.028921296776914504,-0.20343714491646614,-0.05497124672566268,0.07711018505498228,0.11056800733346449,-0.0070407846603348,0.022769896487465996,0.961454877522294,-0.0016441730806342411,-0.0036315131289127974,-0.0012235425409924065
-0.33573980495356887,0.25867139680107826,-0.19024926308130274,-0.042805079344819835,0.1342555714279119,0.03546636379688895,-0.020158391215579653,0.03622255973085598,0.9641283807901877,-0.0018344223437155437,-0.003967252933866366,-0.0009648711441913281
-0.34090034577309203,0.20325838368935173,-0.23338755104318148,-0.047086276108343074,0.10532706697037543,0.024166496095194875,-0.01172226885660522,0.03613030705582175,0.962274092195966,-0.0020678098947587253,-0.004308153279639459,-0.0007616127605019762
-0.2557673506903735,0.270668562427605,-0.280219534783104,0.050757914839642294,0.10853755277732044,0.0008184464517270503,-0.010971793606002606,0.027479645742140096,0.9576595414444964,-0.0023480294295418294,-0.004563920630329832,-0.0004909441980743712
-0.36935336296145127,0.16974617811759843,-0.012351942363053238,0.12367053041861018,0.06098647780915467,-0.05777980888334364,-0.025047995283722348,0.020800921721621513,0.9538836247422973,-0.0023603813719048823,-0.004933273993291284,-0.0003211980199567728
-0.3112231444696545,0.18301813818040313,-0.015474575764916532,0.10149540388312402,0.06384774963929919,-0.03163220901086737,-0.019739795193088,0.023261964575158816,0.9621079313691271,-0.0023758559476697986,-0.005244497137760938,-0.00013817988177636966
-0.28315747632712013,0.19426995011091674,0.10298731170425171,0.08906573339120731,0.1117968668008216,-0.06628429635634814,-0.02198532514570798,0.03366521395141668,0.9630394833892191,-0.0022728686359655467,-0.005527654614088058,5.609006833454711e-05
-0.48232321696820674,0.3508877898106683,0.12745746643765243,0.15156721767287704,0.12428060901166146,-0.060841141150458695,-0.01904894541113524,0.02886967168652823,0.9674767345474501,-0.002145411169527894,-0.006009977831056265,0.00040697785814521547
-0.2660183354908568,0.2043595730715195,0.09584332662838195,0.12235555384430903,0.07844947877664664,-0.06457001194866693,-0.012606780202634945,0.039284312065895007,0.9738253052984408,-0.0020495678428995123,-0.006275996166547122,0.0006113374312167349
-0.14281623398524032,0.07609265349873563,0.2216306655505723,0.18329584635626178,0.031651935957488275,-0.08799251724597218,-0.0218070165928282,0.03165703861972718,0.9644828150737134,-0.0018279371773489402,-0.006418812400532362,0.0006874300847154705
-0.010584983423965674,0.09893571835618456,0.17263517664696384,0.11800611344501516,0.05348377312129696,-0.08388745338777105,-0.023028812938371494,0.01928353516810223,0.962531426920051,-0.0016553020007019762,-0.006429397383956328,0.000786365803071655
-0.009992124050258136,0.053433243040536385,0.2515973998587885,0.10703617795423488,0.04993765394303577,-0.023862980514792118,-0.02127752086826323,0.035872615042836106,0.9601085166270538,-0.0014037046008431875,-0.006439389508006587,0.0008397990461121914
0.02815793270574548,-0.09743961866478602,0.3381725870435441,0.10318251859149252,0.0558795516821245,-0.07120093274903438,-0.01333684121245193,0.03389780797654986,0.9570732575567164,-0.0010655320137996434,-0.0064112315753008416,0.0007423594274474055
-0.032517205823551,-0.20948254695776047,0.2007028279009803,0.12800282986236028,-0.0005992759231189418,0.008177812527038702,-0.012606855919031889,0.023689923570039947,0.9610992755443445,-0.0008648291858986631,-0.006443748781124391,0.000532876880489645
0.0982564964228099,-0.18243614936408117,0.31470206745701285,0.07322056358491155,0.029382323506057458,-0.016783392013041333,-0.023477230025617662,0.032332488887392485,0.950885505249474,-0.0005501271184416503,-0.006345492284701582,0.0003504407311255639
0.28558313208542985,-0.18700851446358716,0.12341600802958111,0.10434931825683498,0.010680673147259692,-0.009915463177149248,-0.01917030553197009,0.03767582682717008,0.9656979544253301,-0.0004267111104120692,-0.006059909152616152,0.0001634322166619767
0.22000171057365,-0.42900343028171517,0.310331863462962,0.10378368342962181,-0.026434405076683768,0.04831311969859805,-0.010995376403955388,0.028871528285675702,0.9631301864711413,-0.00011637924694910722,-0.0058399074420425025,-0.00026557121361973847
0.18863193212285292,-0.32741547771809615,0.10280343831345005,0.001855841380600136,-0.0066211157271724285,0.08317509212182267,-0.021818851481567487,0.029318646349996483,0.9652777667508793,-1.3575808635657176e-05,-0.00565127550991965,-0.0005929866913378346
0.4837826297340997,-0.37384712888874133,0.17140165519658795,-0.033783638816621706,-0.10415127240206005,0.0014779149134752836,-0.024044793964764118,0.03590594968410281,0.9545326456996345,0.0001578258465609308,-0.005167492880185551,-0.0009668338202265758
0.32676600237691605,-0.46120862883210484,-0.018642313162122504,-0.09886038557393771,-0.027617453732368093,0.11318456852562205,-0.017433759085509617,0.029795798141538335,0.9633965783050155,0.0001391835333988083,-0.004840726877808635,-0.001428042449058681
0.3722861579697881,-0.5249068761913384,0.06915168855148768,-0.1093331807733469,-0.055052521942199055,0.08732038001570987,-0.029160313396965447,0.028299487935213093,0.957297725586963,0.00020833522195029598,-0.004468440719838847,-0.0019529493252500195
0.3519125826696692,-0.4562734195044753,-0.1831849851950561,-0.13112646663934868,-0.053767882204337966,0.08394223678403971,-0.024650968803339505,0.025909691915550457,0.9658743493200557,2.5150236755239865e-05,-0.004116528137169177,-0.0024092227447544945
0.4354668730089647,-0.4575615170577871,-0.12236251282843191,-0.19136684823640893,-0.023390599464837913,0.1821029100710031,-0.011890365349312098,0.031089712861502024,0.9551938532955284,-9.721227607319205e-05,-0.0036810612641602126,-0.0028667842618122813
0.24267649069847316,-0.47341792915177405,-0.18782349112084556,-0.24362363191284003,-0.03943184150440606,0.1087626805696257,-0.032746402789871815,0.03640106990545816,0.966151398612974,-0.0002850357671940376,-0.003438384773461739,-0.0033402021909640558
0.28397197679107056,-0.3474437532934636,-0.254355212682709,-0.20943857503241303,-0.032735351731837864,0.1130144507770743,-0.01194927130436614,0.03247076279442816,0.962207509204742,-0.0005393909798767467,-0.0031544127966706688,-0.003687645944257519
0.2974111676242407,-0.2887702042696083,-0.22821728390243212,-0.19054543169851482,-0.0758988518040404,0.07848301490453338,-0.019369970891368122,0.03974001418582168,0.9639669596301944,-0.0007676082637791789,-0.0028570016290464283,-0.003976416148527127
0.251499173519419,-0.17749886605072046,-0.20026755583056077,-0.23822051823293602,-0.047810262691462026,0.0787403989266902,-0.019310073818208828,0.03528881143537263,0.9763040552237503,-0.0009678758196097397,-0.0026055024555270093,-0.004153915014577848
0.21791406605752084,-0.1668828759481806,-0.2295670657951393,-0.20822445649756405,0.026674939971024523,0.07999604562850822,-0.02447500107175834,0.042461242237475806,0.9564418303003626,-0.001197442885404879,-0.002387588389469489,-0.004320797890526028
0.11448527379883704,-0.19402895362135109,-0.08395394323483857,-0.25817621548739383,-0.012194383518426428,0.06246347102957081,-0.024789973098010808,0.026860501539815215,0.9610544904898115,-0.0012813968286397176,-0.0022731031156706517,-0.00451482684414738
0.04920454603655561,0.01838850216213546,-0.09469673320398517,-0.16676911389766655,-0.00854587921359066,0.013212897947860519,-0.028378796507758028,0.022835835466883343,0.9621603811253407,-0.0013760935618437027,-0.002223898569634096,-0.004496438341985244
-0.02444435226219418,0.13258319414505107,0.00625908382099552,-0.15967112408107223,-0.04074594737871493,-0.03096991176799717,-0.01905636401212211,0.03652355709339032,0.9673700154546435,-0.0013698344780227073,-0.00224834292189629,-0.004363855147840193
-0.13923174040981576,0.13308445828588084,-0.11570090063586833,-0.1691280589164525,0.03748703776517147,-0.018399801852924197,-0.01342395551777284,0.03231643981805569,0.9657518015393732,-0.0014855353786585755,-0.0023875746623061057,-0.004230770689554312
-0.17106977335269097,0.19312722713135833,0.023725970604650596,-0.07736711580394746,0.030718458477102088,0.011353816425647872,-0.018343115249866444,0.030958370019478616,0.9696380236167784,-0.0014618094080539247,-0.002558644435658797,-0.004037643462422954
-0.265907071476814,0.35237994044630383,0.07211516913846104,-0.0758636300423594,0.007915508838858148,-0.06866881491210235,-0.02338921707829248,0.03350552110096781,0.9667781940877682,-0.001389694238915464,-0.002824551507135611,-0.0036852635219766492
-0.3041996703540743,0.2617254970911479,0.10358772805462059,-0.003125647674085675,0.07133901505241037,-0.1760975246274913,-0.022701795545206335,0.03637427247201873,0.957585654728668,-0.0012861065108608432,-0.003128751177489685,-0.003423538024885502
-0.29657872919329575,0.2372885554773153,-0.015432696148719616,-0.030098364997708012,0.03261519222116997,-0.11738955397766816,-0.01546420122926007,0.03755506047197862,0.9640591836113725,-0.001301539207009563,-0.003425329906682981,-0.0031862494694081863
-0.42274029741755736,0.32609688825713723,0.13633446214527753,0.08468238478100105,0.13091628126418836,-0.13539050521681373,-0.015126344589951329,0.034974131551027236,0.9694459905377887,-0.0011652047448642852,-0.003848070204100538,-0.002860152581151049
-0.44442490110956934,0.627841802881798,0.031183173524033492,0.12479852577337947,0.0680640666906633,-0.13070634826925717,-0.026483773923138384,0.0380209698592272,0.9568037883059853,-0.0011340215713402516,-0.0042924951052101075,-0.002232310778269251
-0.5055684893028789,0.48949403491653926,0.0689121170859158,0.134446450030525,0.08681167297319997,-0.16183422775080353,-0.023595676335301418,0.037160974109667774,0.9614293221644011,-0.001065109454254336,-0.004798063594512987,-0.0017428167433527115
-0.6008170527017124,0.4551323935702408,0.26303825783891444,0.18252699138804834,0.11258417747757554,-0.12312153829816648,-0.015652694776720703,0.03976846543042371,0.9586891289078716,-0.0008020711964154217,-0.0053988806472147,-0.0012876843497824707
-0.6144753765142975,0.48198977139713717,0.127926568543273,0.1812394726313407,0.06948388105983223,-0.09786901615743203,-0.02272716222682401,0.034052621206191465,0.9642708200955902,-0.0006741446278721486,-0.006013356023728998,-0.0008056945783853335
-0.5008139756486347,0.2311180469290634,0.18779352432651525,0.21747148674089312,0.05879756985890796,-0.08886181621452291,-0.032534171080241835,0.0332303445238172,0.9646832242587273,-0.0004863511035456333,-0.006514169999377633,-0.0005745765314562701
-0.6171432923242435,0.36439572550104016,0.07418112027667666,0.29160735582828234,0.08530410048397136,-0.11914974059155527,-0.02165468619200947,0.03735749890859041,0.9543664041096614,-0.00041216998326895664,-0.0071313132917018756,-0.0002101808059552299
-0.5451319721762196,0.30790171578059183,0.12167851137767084,0.2405464932512122,0.04067301909961304,-0.06974814963944717,-0.020098547538548225,0.028043567525556933,0.9521434736229355,-0.00029049147189128585,-0.007676445263878096,9.772090982536192e-05
-0.48394725269780803,0.22403649233275588,0.05100750135278742,0.22582474566969563,0.02710064183294212,-0.017093421529397745,-0.024837827724866104,0.044385999808999405,0.9668187643916237,-0.00023948397053849842,-0.008160392516575904,0.0003217574021581178
-0.4377945161143679,0.19966288538757562,-0.07237080784266758,0.2395389429926699,0.02796056636546967,0.01918866025940618,-0.01842822730514249,0.031931630329406505,0.9621443236068514,-0.000311854778381166,-0.008598187032690273,0.0005214202875456934
-0.45217435728367816,-0.026835475079793045,-0.13656043551959948,0.18870800195352896,-0.07270341274916166,0.04653226384267263,-0.008940983254088096,0.034902011688109615,0.9607805734327842,-0.00044841521390076545,-0.009050361389973949,0.0004945848124659003
-0.27230353679872565,-0.02446745575956239,-0.2017982922266276,0.23561976214238387,-0.02971953078536585,0.1161879070408242,-0.023165416785860128,0.02737313517921816,0.963523043933974,-0.0006502135061273931,-0.009322664926772674,0.00047011735670633795
-0.33832604839484776,-0.11009802164122422,-0.1328496961521886,0.1914459523574276,-0.05034932656818016,0.09930476537921082,-0.021122808311183967,0.02896251753610051,0.9531049666433579,-0.0007830632022795816,-0.009660990975167523,0.0003600193350651137
-0.27998854511463106,-0.1431961496555907,-0.2211142348191597,0.13021911899165584,-0.04632058511584235,0.10349456962608992,-0.021094548048591816,0.0414302614227014,0.9688724807224365,-0.0010041774370987413,-0.009940979520282153,0.00021682318540952302
-0.10539721436835697,-0.053384426724954664,-0.2939751441712698,0.09595505744605311,-0.016982598895378377,0.21825036348000226,-0.024703262054573977,0.038924893499688654,0.9578321724640461,-0.0012981525812700114,-0.01004637673465051,0.00016343875868456834
-0.07751833652079664,-0.09945668141661182,-0.3007290811308187,0.050447014656862174,-0.08125323911234733,0.16092544852035517,-0.024672386189897297,0.04049841710395042,0.9617165353343621,-0.00159888166240083,-0.010123895071171306,6.398207726795652e-05
0.017401852332018415,-0.3118909856911737,-0.2807617391114089,0.003986797058242047,-0.15766880693272042,0.2003998325793982,-0.012791473653033448,0.028705373658756937,0.9709132146939168,-0.0018796434015122387,-0.010106493218839288,-0.0002479089084232172
0.03139608480450466,-0.2503389092042736,-0.3819780448023731,-0.038237118658797094,-0.11592095236413681,0.1729725943551555,-0.022577418647353794,0.03220964606136829,0.9662282551100254,-0.0022616214463146117,-0.010075097134034785,-0.0004982478176274907
0.10017450020217875,-0.44338550957781153,-0.31057346460013896,-0.06493833663514975,-0.11379954032685212,0.17925965148296466,-0.02461998211551314,0.043800200826888874,0.9531676412273264,-0.002572194910914751,-0.009974922633832607,-0.0009416333272053023
0.2031755519355412,-0.28477881576605496,-0.17952311235852728,-0.12157516671000877,-0.0572772332221439,0.1384492298217995,-0.017262251030084545,0.03556049402325734,0.9617428574772917,-0.0027517180232732785,-0.009771747081897065,-0.0012264121429713575
0.24854592057009578,-0.1398178653745798,-0.14109589733360178,-0.1062357025689009,-0.05206337934727628,0.15169518321731465,-0.014636432830653665,0.03077728071506179,0.9607387711627116,-0.00289281392060688,-0.009523201161326968,-0.0013662300083459372
0.24973684198257923,-0.14080420183903364,-0.1311438588156129,-0.07258203896216509,-0.1166877740050444,0.10156926752905449,-0.023731800748133504,0.03822339050425537,0.958144843528015,-0.003023957779422493,-0.009273464319344388,-0.001507034210184971
0.4057772971823287,-0.12736867918658487,-0.13718076407954666,-0.09660937964268779,-0.07939012776498668,0.10937051449076658,-0.01401538912091213,0.03448354626840847,0.950916499321226,-0.0031611385435020393,-0.00886768702216206,-0.0016344028893715556
0.41502881921424045,-0.24895332665973952,0.14506081111070676,-0.10773895389189035,-0.13762823789209244,0.06899870182738296,-0.02043334995456923,0.02856257360877546,0.9615886735008136,-0.003016077732391333,-0.008452658202947818,-0.0018833562160312954
0.6618478707277344,-0.033050202772779896,0.0815791913332546,-0.09637408631644662,-0.01968642928726073,0.01679398880694817,-0.014606082425113845,0.03601992839701121,0.957296570279653,-0.0029344985410580788,-0.007790810332220084,-0.0019164064188040752
0.5875161657406118,-0.057861701171195365,0.2270255556406766,-0.13816914776677988,-0.07139550733574523,0.04947602016096786,-0.015267034884209888,0.03510545709133933,0.9655794462949339,-0.002707472985417402,-0.007203294166479472,-0.00197426811997527
0.5862356643791337,-0.03572950079810977,0.25186656016803455,-0.06805898442757916,-0.01932434946195706,0.03603770799237933,-0.02229478263359913,0.03443142157966669,0.9536354968929515,-0.0024556064252493678,-0.006617058502100339,-0.00200999762077338
0.4230530531668978,0.06330768525386628,0.26259715540978856,-0.16298065287622143,-0.09081205831307185,-0.07340151286264233,-0.02592652622517957,0.035373033878111554,0.9654726227643707,-0.002193009269839579,-0.006194005448933441,-0.0019466899355195138
0.59412401325579,0.1389274240571745,0.4058352650610263,-0.038324794595582405,0.0007489020964037583,-0.06715553557606586,-0.022624551571659983,0.03204925247621797,0.9744038441366184,-0.001787174004778553,-0.005599881435677651,-0.0018077625114623396
0.48159165374459595,0.2455826267539551,0.3290784884912121,-0.03722983974507801,-0.041968502451843,-0.10152935247524832,-0.02668009165406618,0.0379348054361533,0.9610182978088867,-0.001458095516287341,-0.005118289781933055,-0.0015621798847083842
0.6497838706801926,0.21030594970697256,0.4956520125284317,-0.025861094358304488,0.0006981743898326381,-0.07967866350893359,-0.014217513732901543,0.04544001405084071,0.9755215482713195,-0.000962443503758909,-0.004468505911252862,-0.0013518739350014115
0.4508127369673627,0.21949651132681597,0.3474948127985592,-0.011055391459407695,0.023629296066623263,-0.09779918184494792,-0.01808272293813932,0.033409933070932624,0.9589511916315334,-0.0006149486909603498,-0.004017693174285499,-0.0011323774236745956
