motionRotationRateX(rad/s),motionRotationRateY(rad/s),motionRotationRateZ(rad/s),motionUserAccelerationX(G),motionUserAccelerationY(G),motionUserAccelerationZ(G),motionGravityX(G),motionGravityY(G),motionGravityZ(G),motionYaw(rad),motionRoll(rad),motionPitch(rad)
-0.3470493925053484,0.5061566155031463,0.011936357647362644,0.2550178892788944,0.1510758494146089,0.09568677148049508,0.021538560727411733,0.0448047913254027,0.9941645256157514,1.1936357647362645e-05,-0.0003470493925053484,0.0005061566155031463
-0.18761288042763652,0.49006026986794354,0.02673170253393764,0.26061896642481214,0.05952744580474332,0.08999141012876051,0.02220190456255014,0.047872752352506494,0.9988460472102202,3.866806018130029e-05,-0.0005346622729329849,0.0009962168853710899
-0.18203006611663838,0.4371403602123787,0.09573323178244722,0.2835974754228801,0.14226757670998957,0.09825139837796557,0.017607586228514934,0.028156034184900418,0.9869576823230551,0.0001344012919637475,-0.0007166923390496233,0.0014333572455834686
-0.2805447578810575,0.35605295051500646,0.10048633822223739,0.24850469004771372,0.11716593515881253,0.04629153727747028,0.0188311851817473,0.03800241623562479,1.002037554809927,0.00023488763018598491,-0.000997237096930681,0.001789410196098475
-0.19396160448687436,0.44552109633670717,0.32509325828984936,0.20593325798954148,0.03961260074707606,-0.004309706145564364,0.017843060214301987,0.03508706421767866,0.9955694450961903,0.0005599808884758343,-0.0011911987014175552,0.0022349312924351823
-0.12383607571043145,0.35738098407623226,0.302494058069583,0.19906205212930445,0.050720117112083365,-0.041774783948693384,0.022154181034711763,0.03379319230257216,0.9923609873271407,0.0008624749465454174,-0.0013150347771279866,0.0025923122765114147
-0.21209358488782193,0.14540062462591605,0.26754613582457604,0.20120058881879013,0.07024086669576711,-0.036954107481332495,0.02610909189057643,0.04003329784456809,0.9908065582104829,0.0011300210823699936,-0.0015271283620158088,0.0027377129011373303
-0.09156460046700873,0.1255525762383615,0.39305957737252467,0.16011897632694366,0.05459360090473721,-0.006179106979261566,0.019456155370703485,0.04139526221760831,0.9888414205673989,0.0015230806597425182,-0.0016186929624828175,0.0028632654773756917
0.03718060634344807,0.0999325329386992,0.3623191420060309,0.13919475870378126,0.09666839531576935,-0.0530105880523258,0.021995262943619368,0.039282318001379275,0.9939007174259067,0.001885399801748549,-0.0015815123561393693,0.002963198010314391
-0.004715318871298859,-0.023482298515116705,0.2555764044357283,0.08428148373470765,0.04361280750928521,-0.08358442322740474,0.020562201505125246,0.03939375703852019,0.9903571457304119,0.0021409762061842773,-0.0015862276750106684,0.0029397157117992748
0.06321573716798,0.014201765166933895,0.3309104230719543,0.039167689848648345,0.07280326421034962,-0.0955663432754945,0.02425612758105128,0.03804639207742708,1.0026436220902244,0.0024718866292562317,-0.0015230119378426884,0.002953917476966208
0.19794266221055098,-0.1884343589623408,0.28044751508006444,0.005300542609960282,0.059040265872879215,-0.06009172049396574,0.013078274823488716,0.03578756170299426,0.9924064710067523,0.0027523341443362963,-0.0013250692756321375,0.0027654831180038675
0.15013462052556292,0.01711611666651419,0.143173066456037,-0.06188939584525483,0.017197576569661893,-0.12800858749917707,0.021178634211439448,0.033598988865040966,1.0036935809588055,0.0028955072107923335,-0.0011749346551065745,0.002782599234670382
0.22990721200294145,-0.1456750593951404,0.08632661717630255,-0.1003198614572845,0.024129226229174388,-0.06615923339737112,0.01651052006127416,0.02880096022735621,0.9971276171592238,0.002981833827968636,-0.000945027443103633,0.002636924175275241
0.21979751000849387,-0.2703454611070801,0.07240503481096483,-0.07066979561082576,-0.02675986391896406,-0.10537775959073842,0.01610772113091941,0.03051979074120635,0.9940715595085878,0.0030542388627796003,-0.0007252299330951391,0.0023665787141681615
0.1937390098904384,-0.28083082445024493,-0.011121451281041923,-0.08856349312341594,-0.07013975226814616,-0.03808964410360113,0.020428302397595625,0.03205745858275308,0.9854057012819453,0.003043117411498559,-0.0005314909232047008,0.0020857478897179163
0.4351729719893026,-0.34433353261436417,-0.011938805376441326,-0.14206850579159164,-0.003936472602773494,-0.01744600116371329,0.0262580564946136,0.04129774450133092,0.9955014484528409,0.003031178606122117,-9.631795121539811e-05,0.0017414143571035522
0.36663920605017786,-0.20011478629705376,-0.04622841795586337,-0.10061503888209347,-0.02067403130629673,0.030577276232443752,0.016846270760269857,0.026254222824273993,0.9872014473379478,0.0029849501881662535,0.00027032125483477976,0.0015412995708064983
0.3226003413675213,-0.3019860654922416,-0.11076714928229571,-0.12334674068850017,-0.05663733302798401,0.0008537593249533654,0.023048666554518153,0.03734656338056857,0.9907527476597361,0.002874183038883958,0.0005929215962023012,0.001239313505314257
0.3677383622351764,-0.2049168074226575,-0.023105391227204508,-0.11813384126711103,-0.11699349747824328,0.05758215109079151,0.026999703732637083,0.04246132880614895,0.9973230778735539,0.0028510776476567534,0.0009606599584374775,0.0010343966978915993
0.2466833387663541,-0.276661113791818,-0.1731168130215324,-0.15078286470251462,-0.08894693024485752,0.034617016736021765,0.021176354341885577,0.035762381797163796,0.9902532478654062,0.002677960834635221,0.0012073432972038317,0.0007577355840997813
0.33357569157037414,-0.19948393759928984,-0.2469068821303676,-0.15490234121689364,-0.12504314613194,0.057026243175810586,0.014714819590016002,0.03379603518867984,0.9891724153291255,0.0024310539525048535,0.0015409189887742058,0.0005582516465004914
0.10773526903908678,-0.06275379715677452,-0.23166644861670552,-0.01693083726474769,-0.07551567071193298,0.07368569866158793,0.01989762502335365,0.037662387829161786,0.9872942119444024,0.0021993875038881475,0.0016486542578132925,0.0004954978493437169
0.22712617764576376,-0.13933266072969736,-0.23716872140187514,-0.02936651717266152,-0.06200879517100539,0.09933913669388517,0.02954151376415911,0.03496973590585008,0.9953199502569764,0.0019622187824862723,0.0018757804354590563,0.00035616518861401956
0.13563000701987032,-0.0193265380155491,-0.18204138751120646,-0.05191156168412562,-0.059098400836206114,0.0924838765571716,0.015445807100922335,0.038804557967194106,0.9963003572350108,0.0017801773949750656,0.0020114104424789267,0.0003368386505984704
0.0839357052567889,0.08127124572580545,0.06900789168082169,-0.02966245178380278,-0.06969122481945617,0.13006512316483795,0.016173231648223943,0.04828946256161324,0.9958748057220702,0.0018491852866558873,0.0020953461477357153,0.0004181098963242759
0.05102106501548989,0.09464706881071211,-0.11678216588200621,0.017790289269598893,-0.05936025123725424,0.10336365307425453,0.020763211598466193,0.04136254262224946,0.991027345069885,0.001732403120773881,0.0021463672127512053,0.0005127569651349879
-0.010034750671377672,0.2124823623388306,-0.00028070493074078967,0.0996771611189586,-0.02548154538557058,0.0866980377475176,0.0237361470795961,0.03706449206162485,0.9905966228456966,0.0017321224158431403,0.002136332462079828,0.0007252393274738185
-0.10755108704245481,0.20190657138826332,0.08190976980106632,0.11839462890481847,-0.06988786043927069,0.07537754872060475,0.018005286094007648,0.04540879810869958,0.9944035016164086,0.0018140321856442065,0.0020287813750373726,0.0009271458988620818
-0.17587021138256914,0.1968960068065374,-0.08151705119738943,0.08973904557405477,0.0257608178596264,0.09402608641274296,0.02608575531556772,0.03238680127522929,0.9999887104404894,0.001732515134446817,0.0018529111636548035,0.0011240419056686192
-0.3028575433379885,0.1888731298285643,0.2714892695284812,0.1357136119103794,-0.04342957272790011,0.04851872062910436,0.017218751086365478,0.04605830789248872,0.994505188607871,0.0020040044039752983,0.001550053620316815,0.0013129150354971838
-0.27617414471570784,0.09765490405866309,0.21432289301925816,0.1605823883265508,-0.030598354850103558,-0.027949504784874624,0.013310111596266796,0.0377846246856753,0.9905246512855846,0.0022183272969945565,0.0012738794756011072,0.001410569939555847
-0.26994811160932036,0.1768808826796744,0.20210333938568117,0.1622686651442655,0.0035957744499383482,0.006717670984913711,0.022446300262514998,0.03659320080791021,0.993123201345565,0.002420430636380238,0.0010039313639917868,0.0015874508222355214
-0.33621470018154653,0.261784962623868,0.1840223877907954,0.1669758900388876,0.027394323919149727,-0.06113287252038457,0.0198243329208295,0.03518539893508612,0.9955538918982149,0.0026044530241710333,0.0006677166638102403,0.0018492357848593891
-0.45479518893991233,0.22351692282906804,0.3909916806607706,0.13036115917315724,0.08315620662441611,-0.09286416530132215,0.015435153907373707,0.03142614948133525,0.9892257094246263,0.002995444704831804,0.00021292147487032799,0.002072752707688457
-0.4111884036336279,0.1559792428339975,0.1708454088927824,0.11967930794371592,0.06243241476479734,-0.0750922441838909,0.023525879078997794,0.039351355093302,0.999342939978364,0.003166290113724586,-0.00019826692876329994,0.002228731950522455
-0.5284787599527554,0.19207545351684305,0.09142849860774163,0.09754887210317453,0.060566243830623936,-0.07516049017818106,0.024046979452208385,0.04051527221995321,0.9921648407647781,0.003257718612332328,-0.0007267456887160553,0.002420807404039298
-0.49598024253311124,0.2784237375755733,0.07750733791842637,0.051615982359908726,0.033531394647028,-0.1663748877732088,0.01874106771917868,0.03724502995169483,0.9980035920863868,0.0033352259502507538,-0.0012227259312491666,0.002699231141614871
-0.5880525390243906,0.09838759637908262,0.023187436726558697,0.06809730083166068,0.05077471159955609,-0.13501726927165236,0.02237236235220327,0.046452660927153104,0.9894688331981358,0.0033584133869773124,-0.001810778470273557,0.002797618737993954
-0.47258349757244983,-0.03556489015722398,-0.009840107131485646,0.03128253986953732,0.06145921173618416,-0.15931391844398982,0.0057835761287292845,0.0516119308018135,0.9961322680993806,0.003348573279845827,-0.0022833619678460067,0.00276205384783673
-0.5568529067527651,-0.1406506881467433,-0.07154531950741032,-0.0014862348654563727,0.055686415273237484,-0.13233141224158143,0.02139901814997057,0.042350543266923835,0.994971420903194,0.003277027960338417,-0.002840214874598772,0.0026214031596899865
-0.4621166352489386,-0.36588038877466145,-0.1132489454052775,-0.010910158214713741,0.02687116707637899,-0.15306349116341775,0.018599332766096918,0.03771394738979816,0.9908740848581671,0.0031637790149331396,-0.003302331509847711,0.0022555227709153253
-0.5212689078446232,-0.28326072570317157,-0.22547478271108007,-0.047272737725702674,0.04800681591475068,-0.13685067256053346,0.017057117203550767,0.043700600497004014,0.9983882530919369,0.002938304232222059,-0.0038236004176923338,0.0019722620452121537
-0.4582015915264447,-0.2884107390287092,-0.16474719195723544,-0.1214118098708946,0.06360297577004273,-0.10842083866533214,0.012153792472732045,0.04923701673864243,0.9910108915008765,0.0027735570402648234,-0.004281802009218779,0.0016838513061834441
-0.45462000753828713,-0.40803541568884955,-0.37209626591348777,-0.17259442927203786,0.0028694107880735927,-0.032057149798035235,0.021213325036670005,0.038611668486346624,0.9884996924750401,0.002401460774351336,-0.004736422016757067,0.0012758158904945948
-0.2907941915357513,-0.46259643707620773,-0.19924064682191234,-0.16759709219795238,0.08467651553952296,-0.05863673498511323,0.02067771223162658,0.03512230014193608,0.9939782942886615,0.002202220127529423,-0.005027216208292818,0.000813219453418387
-0.2828376046188637,-0.40388311365401347,-0.30176015790172983,-0.1932562124513731,0.0429028167503269,-0.06837314461802492,0.030027220786745377,0.03655028018730937,0.9905496353549541,0.0019004599696276934,-0.005310053812911682,0.0004093363397643735
-0.10848903593610802,-0.4413986603057737,-0.3179890151875591,-0.20110519551319775,-0.06823853494056446,-0.022008651024688762,0.02172880155180916,0.03831698145322742,0.9960070835836309,0.0015824709544401344,-0.00541854284884779,-3.2062320541400184e-05
-0.012975381255649565,-0.5051094393102119,-0.31704147323990406,-0.25130371414638686,-0.021901067570391855,-0.02142710115413929,0.015269570259528468,0.04134938428814467,0.9964416923363887,0.0012654294812002303,-0.0054315182301034395,-0.0005371717598516121
0.06844161641164762,-0.3739051320724271,-0.14268464924853755,-0.23305002313314285,-0.10945754577034666,0.08205374899172889,0.016636169279757033,0.042590229907038,0.9938303770399168,0.0011227448319516926,-0.0053630766136917914,-0.0009110768919240392
0.07544189876243754,-0.3168031188101929,-0.18204597022042482,-0.19353087139438285,-0.07842442410269125,0.10684936059200395,0.023994980396931827,0.02861753529565248,0.9887725128481853,0.0009406988617312678,-0.005287634714929355,-0.0012278800107342323
0.0581402097686992,-0.3683406400715327,-0.1846615956880526,-0.21778096469094918,-0.08304978531693812,0.11023077430688784,0.027506820208615456,0.0342019145619207,0.9919285442989655,0.0007560372660432152,-0.005229494505160655,-0.0015962206508057652
0.24902350020647307,-0.30706847147595034,-0.1301157070957732,-0.1897369983580899,-0.10120751094517233,0.08691710529031306,0.018592979333455273,0.03416888999104752,0.9969709002763782,0.0006259215589474421,-0.004980471004954182,-0.0019032891222817154
0.15533835072578134,-0.11821743281121143,0.10249501369959645,-0.17091022871913172,-0.09389212880527935,0.15400283570941758,0.021114628645552753,0.037082154101387474,0.9865690156035838,0.0007284165726470386,-0.004825132654228401,-0.002021506555092927
0.40344578399715997,-0.03579779423694855,0.11688208065475526,-0.14633298198662287,-0.09185932073124896,0.16227687083380654,0.017253251244239078,0.03248233171973161,0.9963341070716536,0.0008452986533017938,-0.0044216868702312406,-0.0020573043493298756
0.44174884088946825,-0.035077764396313556,0.2066938638376644,-0.08643334022733935,-0.16934841036316822,0.1469083803001948,0.022152272347612995,0.03399230884647163,0.9963721434117849,0.0010519925171394583,-0.003979938029341772,-0.0020923821137261893
0.40881397849597584,-0.004523434871065512,0.17665069514928503,-0.09349247925915044,-0.13049700768679784,0.13389846419811785,0.020046795414982763,0.02983124771077012,0.9924746595698805,0.0012286432122887432,-0.0035711240508457965,-0.002096905548597255
0.4945604917943076,0.05249325784066763,0.22647725535157065,0.00799677666634371,-0.07980771489365265,0.16196676544321104,0.019399024282333126,0.05163266334234356,1.0031551404368166,0.001455120467640314,-0.0030765635590514887,-0.0020444122907565874
0.5158977221918946,0.15937320919241757,0.2311082468615431,0.005105963729132372,-0.06494499503554868,0.1456534700600685,0.009907847195307053,0.03801925550137939,0.9873764918519344,0.001686228714501857,-0.0025606658368595944,-0.0018850390815641695
0.6308275725715529,0.2184390032060549,0.21473119078893887,0.11406026421949317,-0.06612104793409211,0.15430251951170768,0.022196083025050002,0.028158458548056115,0.9895853509569184,0.001900959905290796,-0.0019298382642880417,-0.001666600078358115
0.634601264700108,0.32007900503113845,0.40759778882947983,0.08159031810072623,-0.06931141673090238,0.1561820136869967,0.016515584981931175,0.0440865929816701,0.9861217140030483,0.0023085576941202757,-0.0012952369995879334,-0.0013465210733269763
0.5875046134743307,0.34126752190341486,0.29410586718801385,0.20079876201298755,-0.02924718163602472,0.031158264010519972,0.023335477744254218,0.03530958622652077,0.9896047901233181,0.0026026635613082896,-0.0007077323861136028,-0.0010052535514235613
0.6159320188338477,0.3428993596832644,0.37075345307498353,0.22224956627927875,-0.06284681207253438,0.061337704496247994,0.020405948954384696,0.037566951643689304,0.9911284911328877,0.002973417014383273,-9.180036727975494e-05,-0.0006623541917402971
0.46150655742309765,0.371460923269004,0.21577185751043176,0.20094513399402203,-0.030606131742667138,0.05024626413576338,0.028385851151293925,0.05187634251991362,0.9945678586670206,0.0031891888718937043,0.0003697061901433427,-0.00029089326847129307
0.659231771263958,0.43689969249398175,0.2813351773346997,0.20271393135405408,-0.013589805884820927,0.0027481112938079425,0.020847938360640278,0.03247931185473458,0.9878981830632749,0.0034705240492284048,0.001028937961407301,0.00014600642402268866
0.4757347209455942,0.3143362868071362,0.13973655404971116,0.2489514883559733,-0.003037469196544909,-0.007067576632532066,0.015003178449209113,0.04433685431617492,0.9881999489458115,0.0036102606032781155,0.0015046726823528952,0.00046034271082982494
0.4476371083566133,0.44639731584338216,0.08367265184573797,0.2386987493868702,-0.02809129499653744,-0.0009388382154133356,0.021515844172600367,0.046222446161220454,0.9994678609940548,0.0036939332551238534,0.0019523097907095084,0.0009067400266732071
0.24991967608110183,0.3531116025245513,0.18025339461797474,0.27175020806170014,-0.003067451976612536,-0.06262389875953582,0.022895901015753936,0.04158710236209438,0.989959797228978,0.003874186649741828,0.0022022294667906105,0.0012598516291977583
0.28927180550561266,0.3626444425265181,0.09636346218600475,0.21101280993865912,0.019949940029372584,-0.05833612989861304,0.020535127825374127,0.028462230980737836,0.9900775430585249,0.003970550111927833,0.002491501272296223,0.0016224960717242767
0.1378031709208847,0.3201664580787782,-0.08898354884380032,0.22904277498646453,0.06571674109307042,-0.07521019408328977,0.01810089964611129,0.04235249134414861,0.9942020312120421,0.0038815665630840324,0.002629304443217108,0.0019426625298030549
0.0143131172446717,0.28550558977109086,-0.05519269658022457,0.1789868331138562,0.08083631584154824,-0.01883949109164995,0.022249533289635255,0.03978668877766141,0.9906307772644168,0.003826373866503808,0.00264361756046178,0.0022281681195741457
0.05248638330176599,0.2128223598163484,-0.105591646726204,0.1752537792251526,0.0033249778633038405,-0.020361630315737594,0.022471067064249183,0.04551907310294767,0.9901062547829841,0.0037207822197776034,0.0026961039437635457,0.002440990479390494
-0.09150129699867939,0.20434937846771267,-0.13103218534828728,0.11438773357997967,0.11563978935689505,-0.11096644424447681,0.02182501125467518,0.04013442271691003,0.9961058862918271,0.0035897500344293162,0.002604602646764866,0.002645339857858207
-0.09693324265488,0.07222874137545866,-0.2464770225260452,0.08396616900633447,0.08401169129848567,-0.02924968662843286,0.02161271055515288,0.0380438169818284,0.9875320975486164,0.0033432730119032717,0.002507669404109986,0.0027175685992336654
-0.3276137437049701,-0.033308571602683586,-0.1116520871644559,0.02655923842107534,0.0934357842673905,-0.07842328139550299,0.02423751696971046,0.04441914623358211,0.9874360572535396,0.003231620924738815,0.002180055660405016,0.0026842600276309816
-0.17656332037117006,0.02146501558670555,-0.12420559528751929,0.034174522537279296,0.11558303116900336,-0.07016162124555046,0.026026874051342956,0.042587386682323286,0.9845437561438573,0.003107415329451296,0.002003492340033846,0.002705725043217687
-0.2682634197924562,-0.07482190044099389,-0.05788687078901947,-0.0016701526006078736,0.046432442213199226,0.009860227218758151,0.019161075874690407,0.03212111531513995,0.9872992082483909,0.0030495284586622767,0.00173522892024139,0.0026309031427766937
-0.16372800896505185,-0.28144231492113186,-0.3481703952693518,-0.033932258462573445,0.06342351444994543,0.03631777302489207,0.023973548304544543,0.03631783707273477,0.9888427571658795,0.0027013580633929246,0.0015715009112763378,0.0023494608278555617
-0.45923409482170163,-0.19089914073538236,-0.1819749700432077,-0.03361917482020095,0.06996144495491191,0.01893423840603367,0.010633731990002082,0.03110907889853637,0.9937440463843209,0.002519383093349717,0.0011122668164546363,0.0021585616871201796
-0.3623738961123901,-0.17197067507731317,-0.07058770097211159,-0.06250074611789097,0.08468591936469964,0.05887968461287969,0.01983467575607626,0.03798592221697123,0.9885805023609491,0.0024487953923776054,0.0007498929203422463,0.001986591012042866
-0.25012619955669696,-0.3277943052018392,-0.07937426108966833,-0.14228439726058587,0.01068036092990496,0.05243330071817028,0.03056410694226265,0.03572106848953545,0.9851090741465687,0.002369421131287937,0.0004997667207855492,0.001658796706841027
-0.2304685034442282,-0.21265630532652352,0.043090036682064486,-0.14085180960666577,0.016835324260755843,0.0734196325984578,0.02651106414874053,0.048316288889450554,0.9940510842582836,0.0024125111679700016,0.00026929821734132106,0.0014461404015145033
-0.2612427238346139,-0.19692039701556693,-0.009011993816503833,-0.15094217497870058,-0.0288649681057227,0.1143576446492292,0.01894061940031774,0.030995540807715473,0.9891448028920519,0.0024034991741534975,8.055493506707146e-06,0.0012492200044989365
-0.18465484988873923,-0.31662451983782314,-0.02056956281424642,-0.10324800235342985,0.013151562151730014,0.12232658176787516,0.026632502789668604,0.03802398773871541,0.9865633625095293,0.002382929611339251,-0.00017659935638203212,0.0009325954846611134
-0.24538719547428597,-0.1373310327926423,0.17050994199556002,-0.13081813244131255,-0.04686548311356692,0.03573142955980755,0.014482829227384881,0.034446838541150625,0.9807864555924465,0.0025534395533348114,-0.0004219865518563181,0.0007952644518684709
-0.2838180113480974,-0.10997138821908597,0.10195505359395837,-0.09980771650781965,0.003775866932787639,0.1306236755521024,0.014538981269828503,0.03295474169085471,0.9892802943642166,0.0026553946069287696,-0.0007058045632044155,0.0006852930636493848
-0.21267422531908017,-0.21039582913001373,0.20786042584930361,-0.07410865929960975,0.01903740526565992,0.050836791558436685,0.018715794637522657,0.03928924691767196,0.9932464488906239,0.002863255032778073,-0.0009184787885234957,0.00047489723451937105
-0.1840511724753751,-0.08932237526956635,0.15221009997334808,-0.06412330981035652,-0.05258028258932839,0.10220492872986194,0.010630865807279592,0.0367006173914217,0.9851577078758029,0.003015465132751421,-0.0011025299609988709,0.00038557485924980474
-0.034339380913297524,-0.06287967041514346,0.2442907307056258,-0.013270098719549657,-0.021752239603754296,0.07289013853749562,0.026982718554085447,0.03978531197847255,0.9935341601992791,0.0032597558634570468,-0.0011368693419121683,0.00032269518883466125
0.01944023264876786,-0.021592725081055072,-0.020146036929933803,-0.031796731041307605,-0.054276696865969365,0.03982021201760744,0.021169442419671586,0.04857917742052395,0.9929433958981466,0.0032396098265271133,-0.0011174291092634005,0.0003011024637536062
0.0038853798860230063,0.14908373338340883,0.039874527944464375,0.02686019417914417,-0.04130934618623128,0.06091595553599575,0.012462998739523204,0.04087564391369987,0.987882470954217,0.003279484354471577,-0.0011135437293773775,0.00045018619713701503
0.11903022769765273,0.11095566417424074,0.16329917233214652,0.0023871102199948986,-0.04636447780197492,0.03084304367155461,0.026301283637396207,0.05396812204018693,0.994819737064883,0.0034427835268037235,-0.0009945135016797247,0.0005611418613112557
0.23390965022886823,0.24121814791373722,0.10259958533518128,0.10983929339396224,-0.0364441839018598,-0.03361520865712945,0.0204103136481962,0.03744943812145206,0.9907308779311772,0.003545383112138905,-0.0007606038514508564,0.000802360009224993
0.16214845961676866,0.2897834552876259,-0.020374415398576623,0.0890784936428717,-0.07221648565937586,-0.09757551788868317,0.025601585399149373,0.03973170106698338,0.9878800102189614,0.0035250086967403282,-0.0005984553918340879,0.001092143464512619
0.3095694498967021,0.30792243891261645,-0.19474439531569984,0.14107530249825403,-0.052674829605324304,-0.060051668019954006,0.01863594649777604,0.05759989546908818,0.9911334759480012,0.0033302643014246286,-0.0002888859419373857,0.0014000659034252355
0.41964914129708275,0.20149304593704473,-0.1805013018017071,0.10927726049411465,-0.10580060892256367,-0.13435813162854363,0.015210569641778323,0.043666968128855205,0.9821544292201141,0.0031497629996229213,0.00013076319935969704,0.0016015589493622803
0.24873350720198348,0.34118041852184355,-0.2759928403267298,0.13980235842528593,-0.05465831579819784,-0.10478853318809363,0.010353836037386498,0.02828251218672103,0.9905928354842428,0.0028737701592961916,0.0003794967065616806,0.0019427393678841235
0.3470273405801881,0.24520095139546305,-0.2026271574424476,0.19478865753380828,-0.040693110544698374,-0.14401404813486893,0.008289156104257695,0.04361965874093888,0.987678018505987,0.0026711430018537437,0.0007265240471418686,0.0021879403192795865
0.43277278590205404,0.13925232744216848,-0.21356646054002046,0.11775840663061346,-0.004497541439089834,-0.15058353037561775,0.016754685559561174,0.03631818068806508,0.9853109790575229,0.0024575765413137234,0.0011592968330439227,0.002327192646721755
0.2322007613668651,0.2901347840956753,-0.4747971306619243,0.16692136201562494,-0.04498698854332742,-0.13718966430513121,0.018584313128923686,0.032946537802174124,0.986621704086981,0.001982779410651799,0.0013914975944107877,0.0026173274308174304
0.4651747129550098,0.17047955616632918,-0.21721682495723743,0.1340721488070651,-0.04963190249284071,-0.13631736242318068,0.016047470822438372,0.048195027549344495,0.9867601807909916,0.0017655625856945615,0.0018566723073657973,0.0027878069869837594
0.39289747058496677,0.20151670202825425,-0.3934063227141832,0.1323067136136375,0.04672336995257069,-0.1391068564443367,0.022803083876967518,0.036640318584114484,0.9979076985221906,0.0013721562629803784,0.002249569777950764,0.002989323689012014
0.36931548686374477,0.11404200136411649,-0.4216891595094666,0.06973281825882405,-0.02713707877834482,-0.09528221952651406,0.018948790656329643,0.039547149784407674,0.9946403867481697,0.0009504671034709117,0.002618885264814509,0.0031033656903761303
0.1838414734745722,0.15293233269620748,-0.21355294912672101,0.044455889449581336,0.025680554457475715,-0.05139737093901986,0.02304280657566079,0.039510490345829555,0.9908956442587606,0.0007369141543441906,0.002802726738289081,0.003256298023072338
0.20931426866399372,-0.12946297654573882,-0.2885503668637711,0.025109250629326858,0.021743866877779718,-0.09649943531416437,0.01548931677246709,0.03141659569087218,0.9961110644790742,0.0004483637874804195,0.003012041006953075,0.0031268350465265987
0.18863039696162404,-0.22690908320505582,-0.2788012658579701,-0.016732513782789067,-0.01602888447795912,-0.05686259886164332,0.013388149967607798,0.03123550927308539,0.9886757660727923,0.0001695625216224494,0.0032006714039146985,0.0028999259633215434
0.2231597930331481,-0.2296057617195472,-0.047665068390275074,-0.048811263188432534,0.05091988787869368,-0.023326874374235092,0.014786488992253242,0.04086778658144363,0.9871458730186583,0.00012189745323217433,0.0034238311969478465,0.002670320201601996
0.049604969844280616,-0.2762671978906478,-0.03318865458099459,-0.08495758244660376,0.016949298951325385,0.005116603401884325,0.01823596836615518,0.036124526709601944,0.9865015078262692,8.870879865117973e-05,0.003473436166792127,0.0023940530037113482
-0.021502682128313168,-0.26730169968082207,-0.0031161034603632218,-0.1403400276263275,0.01985445733452562,0.11057530105232556,0.010089144386011679,0.040091850214495524,0.9886261227673937,8.55926951908165e-05,0.0034519334846638133,0.002126751304030526
-0.2657080316752492,-0.3916886728182868,0.11805686960380003,-0.17467927401873815,0.07607892999773141,0.06243350256631466,0.01459957381605037,0.03732693118312113,0.9847980618036447,0.00020364956479461657,0.003186225452988564,0.0017350626312122395
-0.25618651646533547,-0.4359786342369672,0.13616832598373896,-0.16545717868656798,0.05626509550539793,0.14833806515655878,0.016175891917893835,0.04601045686283977,0.9793855217590715,0.0003398178907783555,0.002930038936523229,0.0012990839969752724
-0.22960606649629658,-0.401102565807263,0.28925335267690677,-0.17300458750913575,0.06489970495949793,0.09862561528674306,0.013255514162708495,0.03676088669731036,0.9804707556230514,0.0006290712434552624,0.0027004328700269324,0.0008979814311680095
-0.25756445967213826,-0.42182600365547523,0.15207029335569294,-0.17130602945575418,-0.0015411567860080765,0.10452592008077417,0.02250365401960542,0.04452744906768843,0.9926368269926414,0.0007811415368109554,0.0024428684103547944,0.00047615542751253413
-0.289397802338384,-0.4552140477463602,0.25269673260134345,-0.21461672253462294,0.06834726342523344,0.15564455842248728,0.019380517497517152,0.03623325439831391,0.9926916040802769,0.0010338382694122987,0.0021534706080164104,2.0941379766173886e-05
-0.5477789263274864,-0.3647222385452683,0.27313262238737795,-0.21126669870900572,-0.010926818593142313,0.1620221756340936,0.02144682225124333,0.04617542468112461,0.9886676704804527,0.0013069708917996768,0.0016056916816889243,-0.0003437808587790944
-0.45351838287979584,-0.3587770803857028,0.27073927941112547,-0.22718864069801914,0.008207462701979654,0.16331008133557337,0.02120819269263715,0.03735349922175008,0.981349307215973,0.001577710171210802,0.0011521732988091285,-0.0007025579391647972
-0.48575927271480557,-0.31514147317623625,0.14402352904517,-0.16449902610203818,-0.007985436907825563,0.16993091885824738,0.017616059534683204,0.04477038145922246,0.9855515663035598,0.001721733700255972,0.0006664140260943229,-0.0010176994123410334
-0.6110766721596076,-0.281908118099007,0.14240028545606925,-0.19902807605717177,0.032105907567583476,0.16008309066878934,0.02086252027245873,0.03670460289434816,0.9881691989166722,0.0018641339857120413,5.533735393471528e-05,-0.0012996075304400406
-0.5512600990979526,-0.34629679250033996,0.21066234586096322,-0.12422784848258851,-0.032695020612453836,0.1226054023743477,0.021268667618601682,0.030974468184889824,0.991420999331529,0.002074796331573005,-0.0004959227451632373,-0.0016459043229403805
-0.5603081568782244,-0.10774006466524541,0.048592177345007176,-0.16949723876090528,-0.02743847022058391,0.13941255453630114,0.023304616366657486,0.03488035133215481,0.98793344904142,0.002123388508918012,-0.0010562309020414617,-0.001753644387605626
-0.4892070450136097,-8.721453340089502e-05,0.07377724504293678,-0.07637169391544209,-0.09086761722117544,0.0952380668595244,0.011385429996167875,0.04102854437405539,0.9850134038781586,0.002197165753960949,-0.0015454379470550715,-0.001753731602139027
-0.5200744193595689,0.01394200484488425,0.14583337847961925,0.007283425205341473,-0.06203433201065736,0.12279212721493447,0.013786442704765874,0.03281161128565005,0.9859400960730874,0.002342999132440568,-0.0020655123664146406,-0.0017397895972941426
-0.4790483781754535,0.03883978629981123,-0.08413117327958089,0.011221622321912645,-0.08956931195143795,-0.023770876874987086,0.02468314617253265,0.040659989687853546,0.9858985416270715,0.002258867959160987,-0.002544560744590094,-0.0017009498109943314
-0.5733848475844401,0.2028304466351747,-0.033517764126696034,0.039113265255224655,-0.06584236892538653,0.01596187230617863,0.011416188604115848,0.03597842716136253,0.9906480783371382,0.0022253501950342913,-0.0031179455921745342,-0.0014981193643591566
-0.4903153165800343,0.21125035014845434,-0.10703017910902204,0.064742667119909,-0.07287297465468291,0.029351821395808483,0.024678104766136744,0.041158927258039574,0.9849040785708694,0.0021183200159252693,-0.003608260908754569,-0.0012868690142107024
-0.35174076095134854,0.32843316919093934,-0.19138891448732526,0.13455571882286438,-0.09965947173756041,-0.010458769573707541,0.013307304316095994,0.04183974272351691,0.9867590272249473,0.0019269311014379438,-0.003960001669705917,-0.0009584358450197629
-0.3016722463249364,0.25920781539079596,-0.30651973281804296,0.18001037017369048,-0.07371623383897977,-0.028063623708514326,0.01987241869421748,0.036772539071365705,0.9875856302634678,0.0016204113686199006,-0.004261673916030853,-0.0006992280296289669
-0.2570974809823642,0.3377212273568335,-0.09383978018322588,0.2312596888957284,-0.13610531113403665,-0.027369821451212584,0.00722974145778545,0.033244328295538736,0.985022987583762,0.001526571588436675,-0.004518771397013218,-0.00036150680227213343
-0.26136335892175755,0.5529253122116518,-0.23388543563031847,0.2560495779948608,-0.08719305652151721,-0.07895669239454002,0.022796703560940212,0.038734046682600096,1.0000862697826185,0.0012926861528063565,-0.004780134755934975,0.00019141850993951838
-0.0446208573877248,0.5365874274876802,-0.24260445660622804,0.27922991245793316,-0.12552476345047103,-0.08772203121059807,0.01521724332160597,0.03683954713282462,0.9877977530968994,0.0010500816962001286,-0.004824755613322699,0.0007280059374271986
0.07415268174917189,0.42577768639181024,-0.1728213089718342,0.20038031862139144,-0.08192218349485549,-0.06123951142601609,0.01123992753431817,0.036708112390386946,0.993841828845977,0.0008772603872282943,-0.004750602931573528,0.0011537836238190086
0.05349329112615502,0.4772006308565232,-0.1335722652453775,0.2971815325961242,-0.13492665048436409,-0.09178546258051137,0.01644020616467647,0.04700009794132605,0.9922530350541128,0.0007436881219829169,-0.004697109640447374,0.001630984254675532
0.17765996436935688,0.3173260502285391,-0.10903392698521834,0.22289066684115788,-0.10127644763707935,-0.09432632823769656,0.015391126996347497,0.03621117397373379,0.9885517940852101,0.0006346541949976986,-0.004519449676078016,0.0019483103049040711
0.11942081330300047,0.31498476281052373,0.0018682980418225636,0.18859577239300707,-0.07839796520971164,-0.01989695684629713,0.01079847091740318,0.04283436793070915,0.9879797792290397,0.0006365224930395211,-0.004400028862775015,0.0022632950677145946
0.3285629904216047,0.2996969195104463,-0.030628806169703537,0.20236626787532366,-0.08678047014792141,0.003935099022416793,0.01928921316032455,0.03288958703560786,0.9850981333270957,0.0006058936868698176,-0.004071465872353411,0.0025629919872250414
0.4052508143078817,0.281856817325232,0.10183992587086327,0.20030029971357913,-0.04319598455243347,-0.005340949226830908,0.021436386345708686,0.03797381726831234,0.980217324299155,0.0007077336127406809,-0.003666215058045528,0.002844848804550273
0.36247534772136564,0.051081939732341125,0.06493114384085771,0.13448620460824295,-0.05364202012141026,0.019860962438025764,0.006553575141772426,0.03901818972069707,0.9890500379328502,0.0007726647565815386,-0.0033037397103241628,0.0028959307442826144
0.4958581408192737,0.12893077106938,0.2801505120126836,0.1561437504415414,-0.00558045192767632,0.049953710191908966,0.009322375926323435,0.04236513748550648,0.9934463492096317,0.0010528152685942223,-0.002807881569504889,0.003024861515351994
0.48672976424062403,0.08738349388505111,0.16574404489801564,0.05450748220482771,-0.03261746413376033,0.09577750607097117,0.008872498844015163,0.036673487037787354,0.98915871464558,0.001218559313492238,-0.0023211518052642646,0.003112245009237045
0.35961417912367144,0.09560726564709092,0.17527868628685778,0.08519983237821742,0.03974047517343364,0.030315769588636778,0.013432897360103935,0.031029582160887297,0.9817802129511142,0.0013938379997790957,-0.001961537626140593,0.0032078522748841356
0.522927906510418,-0.07628889590882613,0.08040421591057169,-0.016381949217497797,0.04309263579588237,0.07768147874384829,0.02630459706944111,0.040955399973000274,0.9813485408588645,0.0014742422156896675,-0.001438609719630175,0.00313156337897531
0.6960984290843175,-0.06082410068689727,0.2196630762084921,0.0008977284212689559,0.08644122887112231,0.07647028144659175,0.010921117308255835,0.038657303271586375,0.9856697717769648,0.0016939052918981596,-0.0007425112905458576,0.0030707392782884126
0.4391268302181124,-0.20559701490007676,0.26360355773376765,-0.01929394007427345,0.034360680086116965,0.157545624273867,0.01445232600512152,0.033063862582217635,0.9803866312000455,0.001957508849631927,-0.0003033844603277452,0.002865142263388336
0.5753931365907279,-0.19509734140631074,0.2679868147513419,-0.042737419311722494,0.06298145968806189,0.16810596048886534,0.01755332197139344,0.04589619187591003,0.9827414677257281,0.0022254956643832694,0.00027200867626298275,0.002670044921982025
0.5972269475804859,-0.16450174905968074,0.08855964744747866,-0.12213058407158621,0.07204234444352954,0.15138192441178594,0.018312892779355803,0.034363717748519006,0.9846904034476827,0.002314055311830748,0.0008692356238434687,0.0025055431729223442
0.5189217791470742,-0.2812841098525259,0.12553334533460703,-0.1412666657654225,0.04607453885274456,0.04879179441931649,0.02385067373456577,0.03884692543391148,0.9997437632886398,0.002439588657165355,0.001388157402990543,0.002224259063069818
0.4118296913341154,-0.2547940194610875,0.058592859607129975,-0.12211569302681624,0.10314558229018869,0.01094626230333908,0.012939424296448874,0.038508514133188974,0.9881141756649647,0.002498181516772485,0.001799987094324658,0.001969465043608731
0.2324641228577905,-0.24316927516891773,0.03130920705651836,-0.1186799917404929,0.06600511607428844,0.04755481925312765,0.015439058313913599,0.046447665117564145,0.9851577405310479,0.002529490723829004,0.0020324512171824485,0.0017262957684398132
0.3319512509610791,-0.07940434536160287,-0.14330408202539152,-0.12123050508548594,0.08439820866190292,0.03289431173270226,0.013162996464289017,0.05041801412347342,0.9901337871485792,0.002386186641803612,0.0023644024681435277,0.0016468914230782104
0.36337901900790914,-0.23636769953419567,-0.281429442746828,-0.13401751625235922,0.06911305526793605,0.010854996296494314,0.019710247618271864,0.03557364373543997,0.9841484808487851,0.0021047571990567837,0.002727781487151437,0.0014105237235440145
0.14402038780392226,-0.22208661926347384,-0.2461424575016874,-0.09681508704428811,0.11206822644918357,-0.02626179102313872,0.01946535869331283,0.0360081873794282,0.9776695272526418,0.0018586147415550964,0.002871801874955359,0.0011884371042805407
0.1655355475961125,-0.0914815093249282,-0.24772695571277234,-0.05970973341890512,0.0743686958666484,-0.02516378908278629,0.013733223163483906,0.03465067733228144,0.9859757414797472,0.001610887785842324,0.003037337422551472,0.0010969555949556125
-0.04372538649254566,-0.06609415572380035,-0.3250365577103432,-0.036861200373253286,0.025039013603394965,-0.0138537907898995,0.009007602225303689,0.04337210787966305,0.9900823993537117,0.0012858512281319807,0.002993612036058926,0.0010308614392318123
-0.029236928738063314,0.1610360168136376,-0.3015563693200551,-0.01914909900603927,0.017073640262325714,-0.12114806496913723,0.022026846960823493,0.03910597307025891,0.9912645331037478,0.0009842948588119256,0.0029643751073208623,0.0011918974560454496
-0.152188272447439,0.051804072511839765,-0.30525878007849605,0.05078516942798015,0.0077706163325698225,-0.09252382961851043,0.02545323777157584,0.03675749271556923,0.9849284455767795,0.0006790360787334295,0.0028121868348734234,0.0012437015285572896
-0.18897064532824603,0.12974167724174537,-0.3164356647165915,0.018736651711482092,-0.009329234900769789,-0.1302335023272878,0.01153707247253346,0.04135438916718868,0.9786142829488729,0.00036260041401683804,0.0026232161895451776,0.001373443205799035
-0.41325274482146535,0.3001395409251977,-0.26605290733822023,0.0803705266190961,0.011238193598137323,-0.07180966234734822,0.019929906907731405,0.03388311269185249,0.9825686843972254,9.654750667861779e-05,0.002209963444723712,0.0016735827467242326
-0.18726402471011025,0.16091407874940208,-0.2927833371365705,0.06430956563100099,-0.042466671184714554,-0.2236663027836816,0.014161646582441966,0.03459513474952014,0.987119172375332,-0.00019623583045795274,0.0020226994200136014,0.0018344968254736347
-0.1593255211968742,0.19809401431094165,-0.17626641129219944,0.14323483188937433,-0.058701435136982304,-0.06785942793722162,0.024495534255479644,0.042391887819459864,0.9694255771567462,-0.0003725022417501522,0.0018633738988167272,0.0020325908397845764
-0.3531652208182735,0.1866455109115867,-0.15653168118212407,0.11510350961917905,-0.08134858380165391,-0.1273731479772507,0.005386777853660539,0.035394407967439305,0.9814617390346795,-0.0005290339229322763,0.001510208677998454,0.0022192363506961634
-0.19715685019614373,0.2882090043095125,0.05385207274376784,0.18584956548945072,-0.09535741905113289,-0.15018202828174443,0.014768357983189692,0.0445081337711749,0.9828398548907737,-0.0004751818501885084,0.0013130518278023102,0.002507445355005676
-0.3638178339778419,0.2601478169883298,0.08371973508062915,0.18826903879919857,-0.08067463834250682,-0.12375328165698364,0.009852742801052129,0.03031337793541573,0.9922786090840284,-0.0003914621151078793,0.0009492339938244681,0.0027675931719940055
-0.39397246182737566,0.2619558637136305,0.09060777402967943,0.16270854511279914,-0.08582629365850122,-0.08363589026812686,0.01839206733041239,0.028093353949414087,0.9868682000150077,-0.0003008543410781999,0.0005552615319970925,0.003029549035707636
-0.3264009566100117,0.23035123525046186,0.08850230668582036,0.1605682394453154,-0.048433777752284836,-0.009129169107184637,0.019154692642129198,0.03946100200029073,0.9830462373927157,-0.00021235203439237948,0.00022886057538708065,0.003259900270958098
-0.31392269768376285,0.07437690239892734,0.11174673971399397,0.11611983955860376,-0.07803774854535282,0.002415625788989557,0.01378917424241496,0.03109878371517732,0.9890842685943446,-0.00010060529467838552,-8.50621222966822e-05,0.003334277173357025
-0.2408013137516033,0.1340804434555656,0.2680192961604106,0.15590813532762027,-0.06687922062348173,0.025008823373914815,0.007703935834387896,0.04404621431253819,0.9799661757743051,0.00016741400148202507,-0.0003258634360482855,0.0034683576168125906
-0.11274665435420206,0.15454293069333294,0.2687909642188173,0.08724395085533451,-0.04179900023489992,0.05310787125773476,0.020347795057976653,0.02489270969227496,0.9923967606350823,0.0004362049657008424,-0.00043861009040248756,0.003622900547505923
-0.15435343514283842,-0.053878337045061765,0.3168083657116764,0.05812562143231736,-0.07625818239972214,0.055590562005945705,0.005467182853195552,0.04098011822862657,0.9891013586535834,0.0007530133314125188,-0.000592963525545326,0.0035690222104608617
-0.07497316373320048,-0.12066426314418596,0.2606773378255794,0.07574321177424072,-0.03903853613091694,0.09339303848773661,0.01139794587770229,0.04122908862123535,0.9748443655842791,0.0010136906692380981,-0.0006679366892785266,0.0034483579473166756
-0.10919031452076775,-0.02415424695423435,0.30986561677799124,0.05786453727903936,-0.04131713739211707,0.11297001996580569,0.008560770552210576,0.031129718154846765,0.9768053860406677,0.0013235562860160895,-0.0007771270037992943,0.003424203700362441
-0.06298518738207967,-0.23889182924318658,0.29847514159272215,-0.025595585636447732,-0.016991624677004782,0.13357763561898903,0.005229543069683906,0.0369898435460093,0.9825065659005213,0.0016220314276088118,-0.0008401121911813741,0.0031853118711192546
0.08321799312213099,-0.255229264878067,0.2822684177906924,-0.06647580742967081,0.031077620903942307,0.14964528624699927,0.00775843442242718,0.03770908395922216,0.9818454520225658,0.0019042998453995042,-0.000756894198059243,0.002930082606241188
0.17915693259999102,-0.30499982018549915,0.3217128467688677,-0.12656063922205363,0.012475004422773425,0.18387711744260093,0.006711790247941835,0.04557258247446663,0.9793948335068062,0.002226012692168372,-0.000577737265459252,0.0026250827860556884
0.1500707288284842,-0.22558994160946289,0.15500445264392648,-0.15125093958354563,-0.03214063006989056,0.16527580774356473,0.01725274254875918,0.03743226394477021,0.9825298815513926,0.0023810171448122985,-0.00042766653663076776,0.0023994928444462256
0.2848361309086191,-0.4268990114383627,0.12973539912828594,-0.17150001788832175,-0.01201041571633375,0.18077572043051252,0.01492775101645331,0.03568752896827728,0.9874924149866162,0.0025107525439405846,-0.00014283040572214868,0.0019725938330078627
0.4309089659794385,-0.4374232784713035,0.19410089662572372,-0.10818449983861755,0.04329675727014535,0.11997181607988651,0.015461186369380393,0.03350830470969731,0.9802412458593909,0.002704853440566308,0.0002880785602572899,0.0015351705545365594
0.29954282847073266,-0.40579999830617475,0.07076855818936728,-0.26186939523492997,0.017079299589125834,0.11169613165011133,0.01645366209212084,0.03322662257839601,0.9810712426294148,0.002775621998755675,0.0005876213887280225,0.0011293705562303847
0.3677918240978879,-0.4394065878350135,0.08056490426622674,-0.22190647016064685,0.007740586961555603,0.12008886947635733,0.019058122532042594,0.035767571938440476,0.9805465655197865,0.002856186903021902,0.0009554132128259105,0.0006899639683953712
0.41065580456647677,-0.34521893623760097,-0.14001798033021473,-0.28038687317948,0.024916821898803423,0.1056516668199105,0.00786115589940592,0.037205965644759635,0.9869975933982191,0.0027161689226916875,0.0013660690173923871,0.0003447450321577702
0.2566472372790827,-0.5591812781157051,-0.08589994527664939,-0.21404666093695277,0.09430139934132402,0.0496643330551605,0.011597056826746967,0.04141610873533889,0.9768762469366551,0.002630268977415038,0.0016227162546714699,-0.00021443624595793493
0.31661017557942356,-0.4450821203998124,-0.10948084914437778,-0.17071605950253427,0.05025912515639733,0.05325604953009414,0.013103146739776753,0.043507018561349364,0.9778558314725683,0.00252078812827066,0.0019393264302508932,-0.0006595183663577473
0.3361055930325268,-0.2664979669650828,-0.14081105741978986,-0.20992918388589177,0.06387186004939742,-0.034938485277995424,0.006503259642234957,0.032675452629225804,0.9675661400606701,0.00237997707085087,0.0022754320232834203,-0.0009260163333228302
0.2409755236136782,-0.24311747038940534,-0.08315777325191583,-0.1491068019344119,0.009557161741570192,-0.0722813931638021,0.018543068498815592,0.030506928628710725,0.9860873012813348,0.002296819297598954,0.002516407546897099,-0.0011691338037122356
0.35617040682365464,-0.14056483724789978,-0.33379660430214864,-0.11952928215651758,0.03376694337960153,-0.0004332368323639677,0.01067975920351617,0.037815407592651805,0.9941603870705669,0.0019630226932968054,0.002872577953720753,-0.0013096986409601354
0.14705136684579123,0.07434702977426082,-0.07616795504492266,-0.05890645792994342,0.07411607398698426,-0.03582128321049851,0.010128682087045777,0.0228589925948929,0.9936299827583263,0.001886854738251883,0.0030196293205665445,-0.0012353516111858745
-0.03218987730664277,-0.01396687739944047,-0.025318178780388514,-0.053206615686019025,0.048095077204279135,-0.05979546324651245,0.003397078683324976,0.04133745690441182,0.9799028098221663,0.0018615365594714943,0.0029874394432599016,-0.0012493184885853151
0.09766485011315659,0.1354309598865333,-0.11713662448792095,-0.036017598486311454,-0.020187098937787112,-0.03737242607323803,0.01830143046681097,0.039758709023565576,0.9827232855239182,0.0017443999349835732,0.0030851042933730585,-0.0011138875286987816
0.27615130408706523,0.2727095342357537,-0.08162820479341021,0.07701497322153483,0.025205596824294164,-0.04900002393559307,0.01167066740262158,0.03879001250540423,0.9808705157145094,0.001662771730190163,0.0033612555974601235,-0.000841177994463028
-0.15215354631647154,0.23478179399897478,0.10317020877217246,0.07784905502382386,-0.030278738878384955,-0.06763267893845451,0.0027058633866608537,0.046288938002542926,0.9856747087593318,0.0017659419389623354,0.0032091020511436524,-0.0006063962004640533
0.17815866040715356,0.2123612516711666,0.05550034741574376,0.0599024961177701,-9.35234877731013e-05,-0.1036788256186674,0.005224086017491935,0.024129607628616833,0.9904388395490671,0.0018214422863780792,0.003387260711550806,-0.0003940349487928866
-0.09000898941377951,0.443216057016361,0.1189403863609062,0.11964407200571356,-0.039477647994721775,0.03877260666827848,0.017360964184636268,0.034724009606049114,0.9873044976314823,0.0019403826727389857,0.0032972517221370266,4.918110822347444e-05
-0.25823559689367714,0.44482615106185686,0.16210450374143778,0.2107858457508468,-0.048168261106306405,0.01101058397400755,0.014015017299695169,0.03932662727963753,0.9765964951882522,0.0021024871764804233,0.0030390161252433494,0.0004940072592853312
-0.3225711621841797,0.49190654781651116,0.10916468985643887,0.2790687167451208,-0.015660634858152677,-0.11123390129282014,0.0014507765642834316,0.03549572665270653,0.9838287351409531,0.0022116518663368623,0.0027164449630591695,0.0009859138071018425
-0.3336048442399898,0.4274319466630321,0.1728305569328663,0.2089987864804123,-0.12158487795046334,-0.04388688507522604,0.018650556061804213,0.04128778720904339,0.975780620365068,0.0023844824232697286,0.00238284011881918,0.0014133457537648746
-0.40314918431530133,0.43793349897225703,0.09334350330051579,0.2789766455971238,-0.10314179111006005,0.03633833483886869,0.0017265628272461354,0.04344753005590514,0.9780110002398842,0.0024778259265702445,0.0019796909345038785,0.0018512792527371317
-0.3157915370794768,0.4286313153574853,0.17953258810937836,0.22561130323000167,-0.10558539204514938,0.03009485314938641,0.009638394164837827,0.04085696155258136,0.978383785302391,0.002657358514679623,0.0016638993974244017,0.002279910568094617
-0.5099459734979337,0.3268538430703962,0.1157429683129168,0.23959634364334959,-0.13680116840068324,0.06545012871755787,0.009973116569834559,0.0342180205549206,0.9849079206448283,0.00277310148299254,0.001153953423926468,0.002606764411165013
-0.4621876583489397,0.4878644222598036,0.10409355013964819,0.23998083915287166,-0.06603534096264081,0.06013852462342525,0.01594752069063086,0.035708792105327986,0.9847746540606656,0.0028771950331321883,0.0006917657655775282,0.0030946288334248173
-0.5124303159321053,0.32663602539550723,0.009244118092031336,0.18401980818612176,-0.14660132893519287,0.0801623418588935,0.0016971090921064306,0.03331274813731237,0.9736476082387038,0.00288643915122422,0.00017933544964542292,0.003421264858820324
-0.6191055389511377,0.25921271188135947,0.1834069777624544,0.22975133854881788,-0.11106422203450586,0.10966566815967832,0.012081202310083354,0.040673990400918174,0.9825768733824536,0.003069846128986674,-0.00043977008930571487,0.0036804775707016835
-0.5941140256112128,0.2984103038547738,0.04170275922036467,0.18146902685614294,-0.07327157886508084,0.06109795397922183,0.004221862419044877,0.03438535764761017,0.983883477770177,0.0031115488882070387,-0.0010338841149169276,0.003978887874556458
-0.5075478703871801,0.13176306761938145,-0.03686648427034287,0.19147201134429503,-0.12728943221863204,0.10951462056184484,0.01181518350427796,0.033341548979459894,0.9845475816577904,0.0030746824039366957,-0.0015414319853041076,0.004110650942175839
-0.48667371107826063,0.10241607048154676,-0.18856445075043907,0.0494704572747426,-0.0588032448636895,0.0855234230131814,0.019825954713872107,0.0350768505782475,0.9802390499948439,0.0028861179531862566,-0.0020281056963823685,0.004213067012657386
-0.406107478132806,-0.04808864728520623,-0.19195950478057758,0.04258614509468067,-0.08128795783452518,0.0917140994862084,0.013824312349773805,0.03392451251027985,0.9763010185977995,0.0026941584484056792,-0.0024342131745151746,0.004164978365372178
-0.37402764059342547,-0.0815692296593174,-0.22862677381128427,0.04513974761276298,-0.098135348339178,0.0966689917747447,0.0007255551344534789,0.033643170222628964,0.9813938014614293,0.002465531674594395,-0.0028082408151086,0.004083409135712861
-0.3663831979561803,-0.03695352465253658,-0.2735642703852827,-0.02019966470857374,-0.0633472464346303,0.10267782959943135,0.008546794926613963,0.031469370432890234,0.9739862941899619,0.0021919674042091123,-0.00317462401306478,0.004046455611060324
-0.3991829128159623,-0.10866889832035172,-0.3212068243566419,-0.028420508894841837,-0.04753934125526616,0.05202589294383732,0.006358617080471599,0.022872814887811337,0.9796657844794735,0.0018707605798524705,-0.0035738069258807424,0.0039377867127399725
-0.27919688762559247,-0.2249383696737277,-0.32254827389363633,-0.07269533621417984,-0.08002528865687913,0.012169628066357241,0.009325214832220652,0.030162861516744667,0.9770420123696024,0.0015482123059588342,-0.0038530038135063346,0.003712848343066245
-0.11925606281890926,-0.27704484181912176,-0.2567785217400026,-0.12649479612401032,-0.015153526885312917,-0.0458024853722077,0.01158436854596075,0.029952335668708294,0.9771726484904893,0.0012914337842188318,-0.003972259876325244,0.0034358035012471235
-0.15873056074678815,-0.2928623725594442,-0.3040762159966061,-0.10470161651628138,-0.02183788051557916,-0.001936747380418961,0.011539783997006694,0.035706145310595634,0.9810839048203719,0.0009873575682222255,-0.0041309904370720315,0.0031429411286876792
0.0567854136322841,-0.2870448873563866,-0.27700493400232845,-0.10993042145344706,0.015150378139226955,-0.077418553887136,0.006376988980041848,0.03783150040253295,0.9853042163601615,0.0007103526342198971,-0.004074205023439747,0.0028558962413312928
-0.11229113854658399,-0.19325117233174222,-0.2250932046632158,-0.09405789980038486,0.07172117936600884,-0.15858365750770104,0.007230803733714264,0.026256967881994026,0.9883134457122197,0.00048525942955668133,-0.004186496161986331,0.002662645068999551
0.1206520569702816,-0.2739500579365966,-0.15857310864172697,-0.11499838501574872,0.05363246228374219,-0.029568998202959572,0.0024983791879084963,0.03132961440515516,0.9780331548032671,0.0003266863209149544,-0.0040658441050160496,0.002388695011062954
0.20112346617785962,-0.26305783204908084,-0.17581827830379382,-0.12345485686222717,0.10462912098463126,-0.11487496223719632,0.0059909877805980755,0.0327878798106441,0.9778582804134227,0.00015086804261116055,-0.00386472063883819,0.0021256371790138733
0.25822350250731063,-0.350237083894329,-0.006279255050301684,-0.13344468421306363,0.10122685832303183,-0.15315670312625862,0.009514971070588695,0.03552114110960068,0.9767215471304307,0.00014458878756085886,-0.0036064971363308795,0.0017754000951195445
0.30774876971825743,-0.1723480386461414,0.02170921152855546,-0.07025843931283651,0.010636661765693015,-0.14765898751679443,0.004650690807718619,0.02997245627302397,0.974317464643517,0.00016629799908941432,-0.0032987483666126224,0.001603052056473403
0.4006595825944129,-0.006615786697683097,0.09213162548879825,-0.07252239986820605,0.10883573848174172,-0.18361735697926584,0.006823057049296691,0.027560989424594874,0.9776079710389318,0.00025842962457821257,-0.0028980887840182093,0.00159643626977572
0.5527194262006033,0.1309414112497204,0.1811247178376852,-0.009464276695782951,0.12435080269550361,-0.1071511420349994,0.009798031071736173,0.028092410659871597,0.9809042165510494,0.0004395543424158977,-0.0023453693578176058,0.0017273776810254405
0.5102035531658736,-0.05165753252930226,0.20860830277810352,0.012160460862404328,0.09216001106859405,-0.08827775492632992,0.004301101086028082,0.036141709122494196,0.9812327900793327,0.0006481626451940013,-0.001835165804651732,0.0016757201484961385
0.5465175957505243,0.06368614098508468,0.24407385008981014,0.007495090586206151,0.17453349631242243,-0.09201839363043311,0.011608057627109807,0.025114628054965518,0.983876703236909,0.0008922364952838113,-0.0012886482089012078,0.0017394062894812226
0.5227019592915702,0.12352382135588587,0.176683571448849,0.05931337701014871,0.058177973095356786,-0.03401614792308325,0.013239268740064567,0.027155439181133265,0.979209921315226,0.0010689200667326603,-0.0007659462496096376,0.0018629301108371089
0.5477893839174944,0.19618620338365328,0.29216992937421676,0.09409491835177194,0.10342492214379152,-0.08764667045118799,0.00456977606408113,0.031124199692227125,0.9872108189818634,0.0013610899961068773,-0.0002181568656921431,0.0020591163142207615
0.6144313054104464,0.20180886927904448,0.33200151354462576,0.12116248143033533,0.08112195359504079,-0.08718145308833448,0.004354640569438777,0.029737259915174293,0.9808804424905277,0.0016930915096515032,0.0003962744397183034,0.0022609251834998065
0.5346843945795333,0.25957975944399403,0.2882080646649767,0.19055328530579252,0.11354897345156119,-0.027518826517600403,0.013723007118039272,0.0277063525081519,0.9808584946152231,0.00198129957431648,0.0009309588342978367,0.0025205049429438005
0.6397290232448795,0.18922363120640462,0.26052028382686854,0.14930287456909044,0.02708849049446994,-0.008431395565877886,0.0024717504311238866,0.02023027400323823,0.9779202618374684,0.002241819858143348,0.0015706878575427162,0.002709728574150205
0.4689875917643631,0.3280657553752485,0.16945115161360644,0.14913650281872448,-0.022618614504949144,0.03783941195467141,0.005630698841889781,0.020926291875409876,0.9800326005942063,0.0024112710097569548,0.0020396754493070797,0.0030377943295254537
0.3686830937545785,0.3437865166001771,0.3486590944616692,0.11328105381191486,0.01037637591353012,0.07055401953590655,0.01007988344290058,0.03326819673287115,0.9765499764633263,0.002759930104218624,0.0024083585430616583,0.003381580846125631
0.44842034487697013,0.15851078899626136,0.21002280088378822,0.15137873464631568,0.015627252486966163,0.0675904805207148,0.0015874059172475913,0.0374320187323959,0.9831978341939305,0.002969952905102412,0.0028567788879386284,0.003540091635121892
0.3618302880402597,0.10644215567635221,0.12904100118367617,0.14341466676068335,0.05089090835506607,0.1403214376819897,0.010683240654508968,0.019961239264954432,0.9857436920274191,0.0030989939062860882,0.003218609175978888,0.003646533790798244
0.2824649172682162,0.12784097041770587,0.07311618043021473,0.12330275015153838,0.016576746692086013,0.14877483670311253,0.003221032986765882,0.024035953385232824,0.9768508136912345,0.0031721100867163027,0.003501074093247104,0.00377437476121595
0.3140529115858177,0.07153666795245461,-0.09177900824367909,0.11207329952994008,-0.033778250293960026,0.172907517821047,0.004486657123798577,0.02398576004535134,0.9783958430494588,0.0030803310784726238,0.003815127004832922,0.003845911429168405
0.1353873424170337,-0.030079590305415058,-0.007663420298769236,0.08205573906169071,-0.052685104644412194,0.22828423622243837,0.0037523829745332096,0.029270467770749112,0.9872711268993606,0.0030726676581738547,0.003950514347249956,0.00381583183886299
0.0278332392682116,-0.04910575822817946,-0.003948070140975285,0.07127845301123847,-0.055907345483704185,0.22112889363107663,0.00518543147694068,0.03110682740489014,0.9816228484798067,0.00306871958803288,0.003978347586518167,0.00376672608063481
-0.006602977698719976,-0.033162942827632574,-0.08092522407821902,-0.013895961791065042,-0.03711498238816627,0.13671890940024195,0.0007151917336753345,0.025493687592198735,0.9805817001126753,0.0029877943639546605,0.003971744608819447,0.0037335631378071776
-0.15132863229452284,-0.2882780989497364,-0.1889539946691694,0.0052595186910376675,-0.038798899448671105,0.10559334987210163,0.007208256104786038,0.019721599840306143,0.977577379717627,0.002798840369285491,0.003820415976524924,0.003445285038857441
-0.08301081998948845,-0.3025566474700031,-0.18410244936366527,-0.00306904737995143,-0.07575549812968309,0.13423075449422223,0.008671402480531965,0.036917832223498856,0.9808206753343792,0.002614737919921826,0.003737405156535436,0.003142728391387438
-0.1829670481938078,-0.2103585909727979,-0.11244082559989277,-0.07918386273527442,-0.03703980518766288,0.07021542332441569,0.014433225265079026,0.02828037399867307,0.977050668481559,0.0025022970943219328,0.0035544381083416282,0.00293236980041464
-0.29630493215971093,-0.3886414104359918,-0.04168256408030105,-0.11634068670556051,-0.0453999041542165,0.19774119767875037,0.009991084632977956,0.02181594139505774,0.9796158013227585,0.002460614530241632,0.003258133176181917,0.0025437283899786486
-0.4628772236058246,-0.4755194866271847,-0.27598957803523866,-0.1521575037362099,-0.056531927815987724,0.06622478033412256,0.021422424004532068,0.024116132256634934,0.988632660175785,0.002184624952206393,0.0027952559525760926,0.0020682089033514637
-0.3105964721629842,-0.35358301789241153,-0.09545032099252698,-0.1865272154220245,-0.08475004091584712,0.020456690958268048,0.0036570335519064048,0.03571675582423497,0.9793048900057361,0.0020891746312138664,0.0024846594804131083,0.0017146258854590522
-0.21674599742209252,-0.5132359891158791,-0.14371562473077848,-0.22739330936792276,-0.03255780158406308,0.015588724969416289,0.008204622734741937,0.021514954925922557,0.9824895706358194,0.0019454590064830878,0.002267913482991016,0.001201389896343173
-0.3207132918627683,-0.4682208002490771,0.06706246890857323,-0.18775117119619625,-0.040887073776997455,0.038500389743299376,0.01335854639668725,0.038952049737163874,0.9803367066352471,0.002012521475391661,0.0019472001911282476,0.000733169096094096
-0.23677017811256984,-0.456119007086841,-0.1026247677893461,-0.2390358153183336,-0.05678084593144583,-0.020421581148444855,0.005762838857252997,0.025236541650557463,0.9843928438577692,0.0019098967076023152,0.0017104300130156777,0.000277050089007255
-0.3687071964336762,-0.34375168927329386,0.07714321655284109,-0.21308420849407475,-0.005981278766945128,-0.04976090921560412,-0.004384371032219014,0.01964934378211889,0.9780897062588462,0.001987039924155156,0.0013417228165820015,-6.670160026603888e-05
-0.46535381968458983,-0.33105854588334227,0.1547935743152522,-0.23674640935306787,-0.013401240597000617,-0.0449939620981129,0.004169264298139683,0.02513489833345316,0.9819342280527315,0.0021418334984704083,0.0008763689968974116,-0.0003977601461493812
-0.23194189508916946,-0.27195490814401097,0.06253715236395249,-0.23079716664014527,-0.03201952231280807,-0.03203822212021793,0.0021141638989793606,0.02800404167783032,0.9756484057232008,0.0022043706508343606,0.0006444271018082422,-0.0006697150542933921
-0.18606446799041415,-0.2816498093913838,0.21447271429406067,-0.2154615825764045,0.02206350518243895,-0.09574841177248972,0.008531736715196591,0.026622067867423056,0.9837251350758329,0.0024188433651284214,0.000458362633817828,-0.0009513648636847758
-0.1629262260090331,-0.21521387802377678,0.26635801590653824,-0.13642947580996623,-0.015249965748160059,-0.07112852164430199,0.00592403084016418,0.028674271325190744,0.9751035945251207,0.0026852013810349596,0.00029543640780879487,-0.0011665787417085526
-0.338146448391933,-0.10400683214476214,0.19569048559810043,-0.09760377913983888,0.06039074916140751,-0.058565526303180786,0.013577400948129283,0.02840794140130518,0.973948094709007,0.00288089186663306,-4.27100405831381e-05,-0.0012705855738533148
-0.11057758558504081,-0.09568318730117703,0.1452708284102751,-0.0601214013874529,0.05756672434077949,-0.10367038659344087,0.00555867788114898,0.02292423316774453,0.9720661109696733,0.0030261626950433347,-0.00015328762616817894,-0.0013662687611544918
0.05869041726809855,0.008943964199420791,0.14699907453356278,-0.019442482306408906,0.039049821797448266,-0.03216357656056266,0.007966438335601048,0.0320202315178042,0.9904599560191348,0.0031731617695768977,-9.459720890008037e-05,-0.0013573247969550708
0.01659044703002343,0.22792434777101386,0.08927661012023166,-0.0036614466741115535,0.020431949350980555,-0.042829754534897464,0.003885117972031199,0.02692772865174818,0.9744242158406227,0.0032624383796971295,-7.800676187005695e-05,-0.001129400449184057
0.08652206869297421,0.21853920489591513,0.1131898924953498,0.035692765837577245,0.06906098922065297,-0.041538464056999305,-0.0033209377095529896,0.030441163103101236,0.9805546272526589,0.003375628272192479,8.515306822917263e-06,-0.000910861244288142
0.11825805944624344,0.19525705977720614,0.155814822797041,0.10113781970186501,0.056564068343340844,0.034007814858473956,0.001952164147688341,0.02718391320605548,0.9805007933711002,0.00353144309498952,0.0001267733662691607,-0.0007156041845109358
0.1984386077110193,0.22874410751908308,0.11984976824633772,0.166153787861725,0.02115395512509062,0.02281490152589817,0.009009897663024697,0.02581501366833891,0.9821768256545088,0.003651292863235858,0.00032521197398018,-0.00048686007699185276
0.23915496827091776,0.4104169005006571,-0.07038849531932256,0.15520518258452498,0.010405537971803422,0.031804476037042485,0.005859920741528493,0.025920438811261496,0.9836218472401909,0.003580904367916535,0.0005643669422510977,-7.644317649119559e-05
0.20705377546657666,0.3987030286786898,0.01576945212635053,0.2045375403519111,0.05905539324236607,0.061935757952730985,0.007379612865760448,0.027301070091455718,0.9865255468329847,0.003596673820042886,0.0007714207177176744,0.0003222598521874942
0.23435457015694172,0.3589906747846381,-0.11975569567717377,0.2730473799069172,0.0004930995276132225,0.08711268720553744,-0.0035332642060558455,0.026464046505826396,0.9838980559425083,0.003476918124365712,0.001005775287874616,0.0006812505269721323
0.3079248236416985,0.43319358659912766,-0.43631113734170635,0.2284610134980801,0.08852471220810006,0.05656526473040154,0.008390780910275286,0.033203298767570874,0.97723855908654,0.0030406069870240054,0.0013137001115163145,0.0011144441135712598
0.348252803501539,0.4751022673777701,-0.3530536225579733,0.22558090132684355,-0.011464909388360627,0.1258173042330202,0.01025235251475045,0.020239629959273104,0.9807720987923396,0.0026875533644660325,0.0016619529150178535,0.00158954638094903
0.3612234738485479,0.45133621967477255,-0.32412105790521767,0.25988395770025646,-0.06201461046388463,0.027287597681215796,0.005832931970642175,0.017294552688946883,0.9794236782237119,0.002363432306560815,0.002023176388866401,0.002040882600623803
0.3862711025324766,0.32687490780529127,-0.3345161671623101,0.2594881517888962,0.0006352063294671187,0.08695605911475594,0.0011046290438212574,0.01908035318947914,0.9781836831765951,0.002028916139398505,0.002409447491398878,0.002367757508429094
0.5222380367252493,0.19853809616196838,-0.3758955153613255,0.21087775852820392,-0.039512243932132235,0.10191316260003225,-0.00394515013796563,0.023844126094638086,0.9778357969101045,0.0016530206240371792,0.002931685528124127,0.0025662956045910622
0.23875386685075142,0.17286975270602115,-0.3367292911425896,0.23553576991111588,-0.07847110277341797,0.07159629293501006,0.0028147848573188195,0.03581798312094908,0.9856934595768758,0.0013162913328945893,0.0031704393949748785,0.002739165357297083
0.35468265656117504,0.2586574513754899,-0.29644002126255015,0.20033290899168557,-0.061808710364826325,0.024402355301464798,0.001616078753233217,0.026635581481594048,0.9739654012273393,0.0010198513116320392,0.003525122051536054,0.0029978228086725727
0.11381160540923964,0.3066652129132535,-0.15114828707982925,0.14830712449017008,-0.046694524152218725,0.042490001124074625,0.00849892936433163,0.023560683708101864,0.974689841138493,0.0008687030245522098,0.0036389336569452937,0.0033044880215858264
0.12080008723965163,0.035933688800348335,-0.17902787910044107,0.12467788199056401,-0.07870493828630486,-0.004628248250714716,0.01161222979435921,0.018230145867049765,0.9768893227065744,0.0006896751454517688,0.003759733744184945,0.003340421710386175
0.08189569625803979,0.08089894281146198,-0.03575836980941567,0.03306370966575692,-0.14829426426805628,0.004358727342077524,0.009427630187620255,0.021633440779988224,0.972814863067387,0.0006539167756423531,0.003841629440442985,0.003421320653197637
0.024613066569586103,-0.104239916240609,0.10045044535124184,0.06181216907125968,-0.07484678799972927,-0.05098776348286945,-0.0028325205923213754,0.014074917910694373,0.9743416455775319,0.0007543672209935949,0.0038662425070125715,0.0033170807369570275
-0.06911341368239707,-0.22230962633964857,0.007504722991543615,0.00215811929889273,-0.059352200274184336,-0.08169639540635752,0.004359043089017892,0.030987079057575195,0.9770580758101647,0.0007618719439851385,0.003797129093330174,0.0030947711106173795
-0.018887495360126016,-0.13792639536653054,0.022548285942592325,-0.028684838790720552,-0.13241220232180034,-0.07365070248021381,-0.010555382929690651,0.017875903942189554,0.9691921690437256,0.0007844202299277308,0.0037782415979700484,0.0029568447152508487
-0.27054198522395745,-0.2357734251252921,-0.02110881977538534,-0.02708178585804291,-0.12150055751920844,-0.08487029569767703,-0.005708494155702843,0.03587227704785751,0.9735203718143535,0.0007633114101523454,0.0035076996127460913,0.002721071290125557
-0.23010031651946533,-0.22664807005336848,0.1378933173656455,-0.14537204837786843,-0.1216480872128905,-0.19091921812645257,-0.004999045238658093,0.02798178141993655,0.975407490341873,0.0009012047275179909,0.0032775992962266257,0.0024944232200721887
-0.3867067804586081,-0.31585887722359546,0.16938649132643857,-0.11335632208373621,-0.1011413048123051,-0.07612208840700985,-0.0013419765667727923,0.023537290126443785,0.9780195768760639,0.0010705912188444294,0.0028908925157680176,0.002178564342848593
-0.41521320524207017,-0.25593745008261337,0.30078160984614427,-0.12769077849799912,-0.15196356483211726,-0.12341391942577627,0.001894129865218128,0.021156221218935737,0.9765925032061579,0.0013713728286905737,0.002475679310525947,0.0019226268927659794
-0.4201279829106167,-0.16115041103399996,0.22921957574353963,-0.1263976958479079,-0.10200004959609203,-0.11280829120436,0.00283583227283606,0.021962476845443335,0.9846858352363302,0.0016005924044341134,0.0020555513276153303,0.0017614764817319797
-0.43716465643068236,-0.2619666408352339,0.29589550672004117,-0.06094077743468434,-0.07607389687104586,-0.12533909770530371,0.0008027196309046712,0.024044942172081057,0.9774890946871532,0.0018964879111541544,0.001618386671184648,0.001499509840896746
-0.37382446289681426,-0.22994276971333275,0.29381565095568607,-0.13114246918083347,-0.04041503890603767,-0.006339835513334191,-0.001307965781845131,0.01627884515369217,0.979618696168653,0.0021903035621098407,0.0012445622082878339,0.0012695670711834132
-0.4859056349485171,-0.14781922540780734,0.39066869723287867,-0.10466540188469273,-0.03914340186687774,-0.07404938451983976,0.006657875107630562,0.021615338650470498,0.9735158926057689,0.0025809722593427196,0.0007586565733393167,0.0011217478457756058
-0.5238919450586601,-0.06818977823241701,0.29916028862087934,-0.15058674523344376,0.004651717687214179,-0.0966333046541685,0.003727250075164972,0.013726626637102463,0.9748046535939644,0.0028801325479635986,0.0002347646282806566,0.0010535580675431887
-0.5597249375764864,-0.24746580583943306,0.1905365255171242,-0.064616826652284,-0.0023182818782189335,-0.05831939336522301,-0.004857875785647541,0.024376934137358974,0.9820112802185459,0.003070669073480723,-0.0003249603092958299,0.0008060922617037557
-0.47454384748515277,0.004901475870746776,0.16830354541749856,-0.006306685147599184,0.012578367339642599,-0.052609119111281195,-0.010038006642380956,0.014688446260172863,0.9730294902811144,0.0032389726188982214,-0.0007995041567809827,0.0008109937375745023
-0.5362480409271926,0.02031372846831601,0.20789418743750118,-0.03190280368310358,0.02920069059007349,-0.017071944512722835,-7.918790195713657e-05,0.018993137832289952,0.9741101557474363,0.0034468668063357224,-0.0013357521977081753,0.0008313074660428184
-0.5362613073103761,0.0673069322107596,-0.014661189712772985,0.03499014047909653,0.03703968626748579,0.03139300111186742,0.003421658130159122,0.024849982537409006,0.9728644791054614,0.00343220561662295,-0.0018720135050185516,0.000898614398253578
-0.48811244433646317,0.13082024773998235,-0.03952203276141631,0.01369780317520193,0.07077143293964273,0.08465798881324178,-0.006223859021861149,0.021522988372986704,0.9776629197718344,0.0033926835838615334,-0.0023601259493550145,0.0010294346459935602
-0.45870450948725694,0.19115995279909578,-0.17096694894156908,0.003902757330441889,0.05987398105324964,0.04761567586776829,-0.001548420664688891,0.02118130568493162,0.9678918960833657,0.003221716634919964,-0.0028188304588422715,0.001220594598792656
-0.3654048803282608,0.2574190394390965,-0.11320647685691397,0.10044393235688119,0.09049105257656283,0.13497448164826534,0.007304764726365834,0.014809882845196569,0.978803660440683,0.0031085101580630506,-0.0031842353391705325,0.0014780136382317524
-0.37794406287751525,0.20391303565463498,-0.21353839253082205,0.10563160073631885,0.06861240817805794,0.11969119819833422,0.00202319048821728,0.012683870093854558,0.9729706575532981,0.0028949717655322284,-0.003562179402048048,0.0016819266738863873
-0.08698669071398218,0.20718136188395853,-0.20743863226046122,0.13875840753619775,0.03323728400656109,0.1320104507746745,0.0038764227694469237,0.020831159589333625,0.9715022701405236,0.0026875331332717675,-0.0036491660927620295,0.0018891080357703463
-0.2329958803720609,0.32570728420679984,-0.1782101327112219,0.14682384903032236,0.099246121914526,0.135288814622277,-6.51959720581269e-05,0.021554678023697444,0.977133284044655,0.0025093230005605455,-0.003882161973134091,0.002214815319977146
-0.11977450179793528,0.2752275009549014,-0.28074409113944787,0.16152740608197372,0.08134167861978897,0.1526243329493401,-2.2370373178970545e-05,0.01670377952137133,0.9796818518804766,0.002228578909421097,-0.004001936474932026,0.002490042820932047
-0.035753919227035705,0.3055100675830652,-0.09914068338973582,0.11674458153699653,0.05040822380860976,0.18150444584618586,0.0025084536068877656,0.019923139953936818,0.974004932389267,0.0021294382260313616,-0.004037690394159062,0.0027955528885151124
0.065697112215601,0.24444635109134333,-0.12406760929513522,0.15262772164473035,0.06712968081481327,0.1635627411458792,0.00017949055424154852,0.01382143200078158,0.9748143878887663,0.002005370616736226,-0.003971993281943461,0.003039999239606456
0.057362433698074186,0.07444707843535199,-0.12188459992515939,0.13759208362923198,0.11252680661210261,0.17405079547213617,0.0028782759619697495,0.015680665492733063,0.974333446445535,0.0018834860168110666,-0.003914630848245386,0.003114446318041808
0.448887244539187,0.14427295331197015,-0.1683633554731075,0.1718813376301583,0.03744238813226733,0.09246254793815643,-0.001205770392314075,0.01671438997470133,0.9795676283277746,0.0017151226613379594,-0.0034657436037061995,0.0032587192713537786
0.27944441414542903,0.10511853007190675,0.09132280371736665,0.07211821818436165,0.07009741651013912,0.10463071145830942,-0.003000088647631715,0.02295213000504438,0.9768797654257513,0.001806445465055326,-0.00318629918956077,0.003363837801425685
0.30533303059531414,-0.13150458237068618,-0.11755118105581111,0.1199816783384128,0.03728633657753823,0.09106128640736418,-0.0014798619145982375,0.010877428297120954,0.9667252756269267,0.0016888942839995147,-0.002880966158965456,0.003232333219054999
0.4909477467985909,-0.14544511749411762,0.1316355250154015,0.017094785861564765,0.03294947945741276,0.0831480189258766,-0.0030462725883082693,0.014757784791789717,0.9776179346166133,0.0018205298090149162,-0.0023900184121668656,0.003086888101560881
0.5611465964241535,-0.024183205301666746,0.1261314011597342,-0.004271530319227446,-0.03916885974673005,-0.015608032788082026,-0.0024738585285156794,0.0169425578276508,0.970487505199921,0.0019466612101746506,-0.0018288718157427116,0.0030627048962592147
0.5858788708644068,-0.09641267585018515,0.19513554502324887,0.004090278088900039,-0.0025530961742725455,0.03311157196355376,-0.010938045197971615,0.02456400097702017,0.973273575395011,0.002141796755197899,-0.0012429929448783048,0.0029662922204090297
0.5112672778236779,-0.3250147305694575,0.1325733099435153,-0.03116688048742079,-0.006668089420723202,-0.08443852710774703,-0.002479113513969675,0.017047567476822154,0.9728759434772084,0.0022743700651414143,-0.0007317256670546267,0.0026412774898395726
0.5536769390339227,-0.18262598379355627,0.14193334105901398,-0.04602525845400823,0.0016830913702859471,-0.013654677281837274,-0.011573865107721407,0.00739541327913326,0.9780967450591267,0.002416303406200428,-0.00017804872802070404,0.002458651506046016
0.5349411866938362,-0.5960571688351224,0.1380302518214945,-0.10224482167109812,-0.03676777124773176,-0.03445636024151324,0.003321736696435062,0.00950431926309224,0.9752832606295989,0.0025543336580219223,0.0003568924586731322,0.0018625943372108937
0.4836203038821774,-0.30018641942259816,0.22970920733385353,-0.1901369876553432,-0.06998037800022733,-0.10720489294862486,0.0007038572093367263,0.015627655529190036,0.970973309098642,0.0027840428653557758,0.0008405127625553096,0.0015624079177882955
0.5331503539916612,-0.4923065159213782,0.18331740403986874,-0.18829381375930299,-0.08199834775074312,-0.08700360170684192,-0.010307814744997498,0.020676138517972772,0.9752331448902268,0.002967360269395645,0.0013736631165469709,0.0010701014018669173
0.6018105790402108,-0.31339616213101473,0.0876844532004538,-0.24169515804113822,-0.05589793061813437,-0.04960797001005078,-0.00011985215001483534,0.016931494888413764,0.9814335635259976,0.003055044722596099,0.0019754736955871818,0.0007567052397359026
0.5841619663445675,-0.4645524337621017,0.14295561157955355,-0.23626151632895692,-0.06146777464090948,-0.08808049806385125,0.0010944002897278942,0.021749770938052884,0.9772891308818614,0.003198000334175652,0.002559635661931749,0.00029215280597380083
0.3414930629893473,-0.3789365919907195,-0.022814384046512502,-0.2076943990542991,-0.0882972622264117,-0.11614611943715568,-0.004246497313381511,0.012208387000694907,0.9782449044521064,0.003175185950129139,0.0029011287249210965,-8.678378601691867e-05
0.42271133159693086,-0.35619137294553654,-0.05328151917827552,-0.2758272450189282,-0.08638065330711821,-0.061747443191571,-0.007398467638026528,0.013088299010447502,0.9821472901510601,0.0031219044309508635,0.0033238400565180275,-0.00044297515896245525
0.28549316000021846,-0.19661315488386336,-0.031192969151542883,-0.1850716530420128,-0.05822357923271582,-0.03726342776339113,0.005486392571191141,0.012742914201544976,0.9725165938962209,0.003090711461799321,0.0036093332165182458,-0.0006395883138463186
0.24450248433908142,-0.2801764958477456,-0.12197372027327395,-0.18731332447029853,-0.05035027254213727,-0.043369671836870224,0.0028546109902648172,0.013119740683327533,0.9710834291408046,0.0029687377415260467,0.003853835700857328,-0.0009197648096940643
0.12176681160919584,-0.1715318674030574,-0.16760021465890362,-0.1805985745770169,-0.06338096225775139,-0.036403676569572795,-0.0076300908834036445,0.02679337575484067,0.9747372496015361,0.002801137526867143,0.003975602512466523,-0.0010912966770971215
0.13620928772108795,-0.1629299882208402,-0.173945625259385,-0.15523969425819117,-0.04005643451482162,0.06374381495891504,-0.00041357320415513895,0.023731163544347983,0.969748129854191,0.002627191901607758,0.004111811800187612,-0.0012542266653179617
-0.04933091230222368,-0.10036415078647745,-0.13224014559902053,-0.06353451815289685,-0.10128819748350483,0.022767476499605598,0.0035772579506708766,0.018207036452068774,0.9715846740295649,0.002494951756008738,0.004062480887885389,-0.0013545908161044392
0.07299929755928919,-0.06887542722801294,-0.3089693621468998,-0.08235192991568359,-0.048137666762546834,0.07303581866882929,-0.0008944273111185777,0.018597025180729004,0.9715782826353312,0.002185982393861838,0.004135480185444677,-0.0014234662433324522
-0.13041229431313456,0.08081310561126169,-0.528262417223019,0.014672000184585835,0.006815916885396438,0.035383802782175004,-0.00703811604349909,0.018570889594503637,0.9706813209457866,0.001657719976638819,0.004005067891131544,-0.0013426531377211904
-0.06944199170936574,0.10886559046010519,-0.27745085874133096,0.0559153080871743,-0.05745977652122329,0.03417148454525294,-0.006742337441525421,0.013477123273055589,0.9684635568427964,0.001380269117897488,0.003935625899422177,-0.0012337875472610853
-0.18537217883747614,0.25279496099459675,-0.24911897432718266,0.07741393606112237,-0.008659635113843753,0.09399248348658264,0.002493940810401575,0.026716750938063312,0.9700525418681155,0.0011311501435703054,0.0037502537205847016,-0.0009809925862664882
-0.3456512000070306,0.26647516986968645,-0.28798893139407417,0.10695015289142239,0.004643119641085134,0.12501889409435843,0.0019402393160422643,0.01641031939123998,0.9787393342778841,0.000843161212176231,0.003404602520577671,-0.0007145174163968019
-0.18302372603501785,0.3852343029102535,-0.23368367592890105,0.1327737689287219,0.03894533340273924,0.07727990041149796,0.005682260387385915,0.012168150676277186,0.9710377572873562,0.0006094775362473302,0.003221578794542653,-0.0003292831134865484
-0.27980675671262584,0.3836500898932856,-0.24874259245921138,0.18234675737227798,0.003638178239101249,0.07750605452752696,0.006832936897991918,0.016036634472425676,0.9782607624952099,0.0003607349437881187,0.002941772037830028,5.436697640673721e-05
-0.20305804756822807,0.39739301362553975,-0.0858817521017883,0.18288097910885914,0.09189132806139831,0.0757186457891192,0.009972269452277503,0.008320550891357796,0.9694181416320665,0.0002748531916863304,0.0027387139902618,0.00045175999003227695
-0.4049226749225552,0.4297971316178542,-0.11561369394153824,0.20236819392570513,0.09341859162641798,0.04786731066718917,-0.012549805893880012,0.019941239822076132,0.9784508693005409,0.00015923949774479214,0.0023337913153392443,0.0008815571216501313
-0.3440010134771163,0.3856522380317817,-0.03382417361213092,0.28494382372146165,0.03792508911219006,0.05692603676109638,-0.008384078820649057,0.009909311753868949,0.9747911964879901,0.00012541532413266123,0.001989790301862128,0.001267209359681913
-0.31524130013187246,0.35300424009304904,0.16692609814894474,0.21706687278249584,0.0732910852792807,0.012293363540957383,-0.006101611709371166,0.01566221665944125,0.9619925669013917,0.000292341422281606,0.0016745490017302555,0.0016202135997749622
-0.3255027923113582,0.41603111997262354,0.11179604113603382,0.22602440838743146,0.018132292547150663,0.002512696082650998,-0.006593183379841279,0.012339888282835467,0.9767047771563385,0.00040413746341763976,0.0013490462094188972,0.0020362447197475853
-0.21572826730306252,0.3194890020704594,0.20895490647287057,0.25964217579529086,0.0446545572189795,-0.03222949025484336,-0.005834704660476861,0.012536934482293979,0.9810481449618794,0.0006130923698905105,0.0011333179421158348,0.002355733721818045
-0.24397933779434075,0.30666300272814767,0.25041268276270107,0.21557784076996833,0.027122496920113537,-0.04583397202296996,-0.003176903804425912,0.01688422607052268,0.9703327809709361,0.0008635050526532115,0.0008893386043214938,0.002662396724546193
-0.2530702941819356,0.305369500234519,0.2821189639407332,0.2245431401308845,-0.008402842070202917,-0.01703074916463497,0.003891190294623559,0.017004337287226348,0.973089485958841,0.0011456240165939446,0.0006362683101395583,0.0029677662247807116
-0.2086201663611185,0.25632826955000454,0.27931908809602835,0.20562711930903133,0.009233640145226565,-0.07396782905550393,-0.012498624188689094,0.011998283282539178,0.9695582256165456,0.0014249431046899732,0.00042764814377843977,0.0032240944943307164
-0.05995224089351632,0.10138711048188129,0.37265196079163143,0.17394935727512156,0.03768674013018288,-0.08506185133140234,-0.0065297521355542915,0.01189923471091105,0.9771789574073954,0.0017975950654816044,0.0003676959028849234,0.0033254816048125975
-0.08677721899843541,0.22005634088409987,0.2740600220037701,0.07925580495743004,0.028935102749840444,-0.1376970028291564,-0.014195180219578224,0.01944078653614136,0.9670063034239065,0.0020716550874853744,0.000280918683886488,0.0035455379456966977
-0.0010572226421251205,-0.08841921144828699,0.18978227059210548,0.08345747723593258,0.02136513704088498,-0.11096335000432145,-0.0018835354660420977,-0.0015119611271997013,0.9752128068770253,0.00226143735807748,0.0002798614612443629,0.0034571187342484107
-0.007000062658102352,-0.15173315825534126,0.18665694363109406,-0.0035935288763810427,0.008408532922719009,-0.14924718824588304,-0.002126890692171708,0.018178362935119787,0.9779553653832779,0.0024480943017085735,0.0002728613985862606,0.003305385575993069
0.06089750800899793,-0.09559709408857862,0.27075146245784254,-0.03756414903797414,-0.012493968961378258,-0.204923793317674,-0.0016642485037790256,0.014817892580961146,0.9667907345681023,0.002718845764166416,0.0003337589065952585,0.003209788481904491
0.17356256976443019,-0.27556681916282794,0.1224420309393848,-0.05378535856756927,-0.05040782691985394,-0.06177292090091265,-0.009749618763391171,0.021355550071805174,0.9791860628271867,0.0028412877951058007,0.0005073214763596888,0.002934221662741663
0.21961787169407207,-0.07299473325996123,0.1335329002642858,-0.06378056253386949,-0.08898724387126357,-0.1042933627595461,-0.002491235160187336,0.009245056425764094,0.9727892937647545,0.002974820695370087,0.0007269393480537608,0.002861226929481702
0.17895129595454562,-0.23540246285333846,0.03731550105004064,-0.11714889268927492,-0.03709849460528122,-0.09123504609854237,-0.014892918747330567,0.008416889622862266,0.9753897545661524,0.0030121361964201275,0.0009058906440083064,0.0026258244666283632
0.2366329460380443,-0.2237821119626354,-0.026711735833931133,-0.14891537241042116,-0.06300826597933351,-0.06603563033129886,-0.009671847245894066,0.0034910226767892,0.9763451882914141,0.0029854244605861963,0.0011425235900463506,0.002402042354665728
0.39500807154416706,-0.2602034093949049,-0.08386619161060134,-0.10707313683293537,-0.0860207821751421,-0.058455681516273124,-0.011542111023202711,0.01435961313584932,0.9704543673484263,0.002901558268975595,0.0015375316615905178,0.002141838945270823
0.37034260247349354,-0.4546562730680287,-0.14726963002137258,-0.13485743264922906,-0.07046845443524939,-0.03014093535160018,-0.001768829265994953,0.003038839446159315,0.9729003231190603,0.0027542886389542226,0.0019078742640640115,0.0016871826722027945
0.3921704446316968,-0.2167019425484744,-0.18151653705696294,-0.15277415391887825,-0.1234991664186229,0.002290661114285261,-0.008338539562311453,0.015604293932844796,0.9732805027720398,0.0025727721018972594,0.0023000447086957082,0.00147048072965432
0.30586852925792274,-0.2788110862962552,-0.327147294310842,-0.10649448123131572,-0.11108570653647615,0.028229632000895795,-0.006619633953037867,0.003439401146619384,0.9713201117853685,0.0022456248075864173,0.002605913237953631,0.0011916696433580648
0.4248603271920239,-0.1792847217264318,-0.2278395475759999,-0.10034236202748732,-0.08384632664804997,0.0370938854083847,-0.01209014080051577,0.01419152402035416,0.9723207488342458,0.002017785260010417,0.0030307735651456547,0.001012384921631633
0.2260245869705805,-0.025733883021833548,-0.19792894696098184,-0.13049862516772903,-0.14351169022797475,0.11831460401167279,-0.01046702207698002,0.010464329756308366,0.9756330432819035,0.0018198563130494352,0.0032567981521162354,0.0009866510386097994
0.14050726541425773,-0.12974252973414874,-0.17181242629864737,-0.05520343892984647,-0.06970344586450557,0.15093156144772996,0.001443435088957376,0.009845986105304265,0.975121818496216,0.0016480438867507883,0.0033973054175304926,0.0008569085088756508
0.3343665661241055,0.01944058000154521,-0.23925751161473222,-0.04517503912776142,-0.09241188511789603,0.16352812165206268,-0.007451063715204984,0.01339317409990202,0.9754460964533419,0.0014087863751360559,0.0037316719836545985,0.000876349088877196
0.21549030039198097,0.13856273476117528,-0.05445464658605213,-0.03839072043491456,-0.10627034332699332,0.13345932278297085,-0.0024778524541157754,-0.002488327809359172,0.961866251556476,0.0013543317285500038,0.003947162284046579,0.0010149118236383711
0.2195192111949273,-0.02448848032621065,-0.15972249670018918,0.028466337369266896,-0.09271026511214292,0.13597039614946388,-0.007586823790112357,0.011151036641801485,0.9672001651374581,0.0011946092318498146,0.004166681495241506,0.0009904233433121604
-0.023426342492097775,0.2349878562564921,-0.06513299913117485,0.040685219976313636,-0.03180975060058412,0.14822003603734857,-0.008097890875067628,0.010755701867029347,0.9717560458011599,0.0011294762327186398,0.004143255152749409,0.0012254111995686524
-0.025358026635324278,0.22638417455633464,0.028101095926862385,0.05605789863774378,-0.03169130731078046,0.17375131836316693,-0.012189635432615765,0.010275457292924464,0.9736048309849559,0.0011575773286455022,0.004117897126114085,0.0014517953741249874
-0.12184755761446775,0.2497160350930117,0.03204008086392169,0.15530959565340913,-0.009459604729553388,0.1884286640078354,-0.010907630133333568,0.010105369476856517,0.9766879094674352,0.001189617409509424,0.003996049568499617,0.0017015114092179988
-0.1453264421019526,0.23970255065044022,0.18719316479926093,0.10526012381344027,-0.0001946899777226412,0.16380333538759487,-0.010916840223474333,0.0008727617712278304,0.9603153327818453,0.0013768105743086848,0.0038507231263976644,0.0019412139598684389
-0.3543196807110589,0.24290827604212822,0.10145370638264659,0.14268773623322756,0.021646202376847532,0.1272065977217641,-0.005971590977856829,0.005628715664381421,0.9724151090194759,0.0014782642806913313,0.003496403445686605,0.0021841222359105673
-0.33329869153894714,0.2371497099203364,0.17556733922080855,0.185765384642686,0.009350801251794903,0.11286729434681303,-0.007168907761369836,0.0063311838204052695,0.9723093549548066,0.0016538316199121398,0.0031631047541476583,0.002421271945830904
-0.4101072713200995,0.2689749456953516,0.07807941503296761,0.16019563582500682,0.0014229858040012916,0.032854799759941364,-0.009084821644564946,0.01805657194944235,0.9686111145253827,0.0017319110349451076,0.0027529974828275593,0.0026902468915262555
-0.5145078954202177,0.18396272759374477,0.2008298516076811,0.11749518127937711,0.04321084243927707,0.024951780580270554,-0.008351637342608496,0.004852572823679515,0.9727791108874907,0.0019327408865527887,0.0022384895874073413,0.0028742096191200005
-0.4682648860159284,0.25032108078247023,0.28981326156455267,0.1352871367118408,0.04084138828821482,0.08219874554748459,-0.007830330051862417,0.00619391527231329,0.9691558084500871,0.002222554148117341,0.0017702247013914132,0.0031245306999024705
-0.5373274255707153,0.10280098960894746,0.15691727441303874,0.13730461259657145,0.12380640673104443,-0.03217356799501867,-0.0033775923934490767,0.0108716545780073,0.9632651149743974,0.0023794714225303802,0.0012328972758206978,0.0032273316895114175
-0.5224074224322309,-0.0064648007119613715,0.12000475793898556,0.10208011742311772,0.10207535793516957,-0.004265386940648449,-0.00999373204573336,0.0016811178141287048,0.9583797136376363,0.0024994761804693656,0.0007104898533884669,0.0032208668887994565
-0.45668138328849767,0.014878060262629614,0.09713792694528989,0.1295197872730158,0.07012385509758441,-0.030001462652876267,-0.014333837878000584,0.005613005643855167,0.9660270027464731,0.002596614107414656,0.00025380847009996916,0.0032357449490620863
-0.5159325747004352,0.0007728365288849764,-0.06267930514597175,0.06370375826266161,0.09213355950838738,-0.0456543581331786,-0.0036648671487168752,0.008515259402328298,0.9707661604852799,0.002533934802268684,-0.00026212410460046607,0.0032365177855909707
-0.5724086850895787,-0.05903125400197309,-0.0384905954071327,0.0075098379899096864,0.10590803872919603,-0.05312120980671919,-0.002305006496383039,0.007637799719741957,0.9666992746502088,0.002495444206861551,-0.0008345327896900448,0.0031774865315889974
-0.6148902696469092,-0.13367450923292737,-0.08072358446182575,-0.020351746252680755,0.09979617553613776,-0.16029222012166655,-0.009583643891082719,0.0016324504416107954,0.9683816739882403,0.0024147206223997255,-0.001449423059336954,0.00304381202235607
-0.45458514743553097,-0.20198539812409116,-0.1358061270311136,-0.06465305343664694,0.06967597108290152,-0.10630153524592745,-0.008276946925283716,0.0015556570463777161,0.9725238222330393,0.0022789144953686115,-0.001904008206772485,0.002841826624231979
-0.3571038889209689,-0.35086236227655276,-0.09110337690317319,-0.02362352519533783,0.09833582515334234,-0.07168790061763781,-0.011738592647586133,0.008173142441745457,0.9651211099283621,0.0021878111184654384,-0.0022611120956934536,0.002490964261955426
-0.35336231403923696,-0.31698900778963846,-0.30881625603282065,-0.14516793726894095,0.11113386424075147,-0.07408556655013651,-0.01057997968680956,0.012595468331597227,0.9605066495039007,0.0018789948624326177,-0.002614474409732691,0.0021739752541657877
-0.2749242773303144,-0.12559150469198777,-0.23246504466111462,-0.16623861193248426,0.04526144826652549,-0.06346473238738962,-0.00136197491810631,0.007259760686280879,0.9655727581749984,0.0016465298177715032,-0.002889398687063005,0.0020483837494738
-0.2555130079431826,-0.511005177584183,-0.3858074741229211,-0.12438214650812034,0.002239417381189471,-0.12352070623035723,-0.007541169997717883,0.013032056136044808,0.9723289164046336,0.001260722343648582,-0.003144911695006188,0.001537378571889617
-0.22025315505444343,-0.36579301235523576,-0.2327198597537444,-0.15207299670906962,-0.028543953412241196,-0.005436093331249439,-0.017167102622282503,-0.004543955437759797,0.9685520873286789,0.0010280024838948377,-0.0033651648500606316,0.0011715855595343812
-0.18412388351585823,-0.3006806963066898,-0.3051827066599673,-0.2219062494817546,0.04978022774349046,-0.03268123448729808,-0.014655256252457515,0.009357546284074241,0.9671995666242642,0.0007228197772348704,-0.0035492887335764898,0.0008709048632276914
-0.06893123188916477,-0.4387818763640774,-0.19338969280556775,-0.2552315539841322,0.017543175874162563,-0.009977279215189374,-0.00586901882994923,0.006356824237411889,0.9710839669445729,0.0005294300844293026,-0.0036182199654656542,0.000432122986863614
-0.03053120024000984,-0.29601736039063553,-0.3627203470764682,-0.1943707621054112,-0.032776455066583964,0.032908967670258533,-0.009694871831512453,0.0017925317498310787,0.9796101761553757,0.0001667097373528344,-0.003648751165705664,0.00013610562647297842
0.008829353435359802,-0.25571504210129337,-0.01958489693688975,-0.2580965620394285,-0.03799562093306845,0.029856971548333965,-0.015404668477056066,0.005508436488969268,0.9745081716072832,0.00014712484041594465,-0.003639921812270305,-0.00011960941562831497
0.3059014534986075,-0.3240382238230799,-0.11012040377910401,-0.1976617201934201,-0.03353448355981975,0.09120365015238699,-0.011764212156366912,0.01255553839179507,0.9725529085961505,3.700443663684064e-05,-0.0033340203587716973,-0.00044364763945139486
0.24573383478946906,-0.24827247138157305,0.005509258394411243,-0.15425776757594992,-0.0012617811780966303,0.049882264095758744,-0.015507839710764616,0.010782710264792906,0.9751158618262618,4.251369503125188e-05,-0.0030882865239822282,-0.000691920110832968
0.3473460713642504,-0.12061066008040014,-0.1457217994750136,-0.18402644413383842,-0.04965670005624073,0.09675223915487817,-0.010168596068232741,-7.569028699469429e-05,0.9668444229501003,-0.00010320810444376172,-0.0027409404526179777,-0.0008125307709133681
0.34308933333392155,-0.22082128237919924,0.0536638242269828,-0.10132782005545196,-0.0444680500330811,0.10989262254099118,-0.019899510640021534,0.005232553072897862,0.9544383077372239,-4.954428021677892e-05,-0.002397851119284056,-0.0010333520532925674
0.523858222428166,0.094189355453524,0.01718348034869817,-0.07311656370534175,-0.03384506554726044,0.1092304701041547,-0.013249726528485306,0.010048358536228954,0.9675420277885184,-3.236079986808075e-05,-0.0018739928968558896,-0.0009391626978390434
0.460110190366486,0.08072600532037907,0.14326630136675234,-0.028227848566569035,-0.08947903907522431,0.10315169450356827,-0.01171180761961445,0.0068873000544638005,0.9649983650365985,0.00011090550149867159,-0.0014138827064894039,-0.0008584366925186642
0.5107102263591988,0.05937892695705216,0.05603943009236048,0.018982937943786794,-0.05466144051646059,0.0628516988214032,-0.006905802940334123,0.0007018856080713998,0.9742157639199668,0.0001669449315910321,-0.000903172480130205,-0.0007990577655616121
0.5656038453551592,0.17883471576120022,0.2916429120004263,0.06683944152511774,-0.10680377932752609,0.044263963557514434,-0.0113164475734445,0.0009391316513856487,0.968220576155792,0.0004585878435914584,-0.0003375686347750458,-0.0006202230498004118
0.5728261522186605,0.24056518156851875,0.3199608073071547,0.08159347920798066,-0.07614245234777826,0.05351195252641156,-0.015633964635422944,-0.007159581984113278,0.9717227295783529,0.0007785486508986131,0.00023525751744361479,-0.00037965786823189305
0.43707693320882013,0.21501765098206066,0.47662837902719357,0.14884996098522826,0.0017011759223823138,0.011321934738232868,-0.01938281198365876,-0.0005170348609593303,0.9751815500941446,0.0012551770299258065,0.000672334450652435,-0.00016464021724983235
0.49722951688674544,0.3427414040796554,0.31991396312814724,0.16505233980087597,-0.02724212322288577,-0.05022534325173169,-0.010087953071583597,-0.0016175519559245032,0.9614015444810603,0.0015750909930539536,0.0011695639675391805,0.00017810118682982308
0.6056223422620709,0.5126298277652303,0.36510790153483025,0.1827355388850981,-0.032915061300123165,-0.03461026995432342,-0.0051893418407068315,-0.0035999021524676152,0.9654095290475144,0.0019401988945887839,0.0017751863098012515,0.0006907310145950534
0.4562786422175382,0.4581580462897299,0.3014761227093515,0.26644842591951,-0.04429730941470835,-0.07732083792287614,-0.008830996379281947,0.0032317742890915556,0.9662145491064432,0.002241675017298135,0.00223146495201879,0.0011488890608847833
0.39972753973037234,0.45551273471033266,0.07901686333151409,0.2561944803574801,-0.039741861860897724,-0.007405094189086659,-0.011423894331889298,0.0004969001015260913,0.9707026233687454,0.0023206918806296492,0.0026311924917491623,0.001604401795595116
0.36881913276584255,0.455273735265064,0.1663761942024725,0.2370137721814912,-0.028583278243217942,-0.11367085131379583,-0.010604173201004874,0.00016621692141792943,0.9602210576148215,0.0024870680748321217,0.0030000116245150047,0.0020596755308601804
0.3053013042526248,0.39415979179627725,0.25211311397704694,0.2249379344283626,-0.0033730665399180964,-0.07792706869703601,-0.015854934504514074,0.00021285679980952165,0.964289596398982,0.0027391811888091686,0.00330531292876763,0.0024538353226564572
0.2679361517641067,0.2966192893100921,-0.019931925241274073,0.22737513868175296,0.07418698483576788,-0.0862293823618004,-0.004871426710148617,0.01038608293896943,0.9715200109320996,0.002719249263567895,0.003573249080531737,0.0027504546119665498
0.19640123092175632,0.30714615165572223,0.0809768883547728,0.2777285687923158,0.06840774494514944,-0.1359647293514139,-0.01755998807628968,-0.0013758085594885133,0.9787743190957494,0.002800226151922668,0.003769650311453493,0.003057600763622272
0.06207891993056626,0.3269979270398358,0.010255310634542394,0.2629947638782427,0.06768977230774707,-0.16080963007107565,-0.01597512898699443,-0.004403169046115525,0.9672610477303716,0.00281048146255721,0.0038317292313840598,0.003384598690662108
0.04971244638840941,0.1784096111930385,-0.011686889267751632,0.18707186378854093,0.027833631606785647,-0.1866335405919937,-0.009881057373883386,0.003725347530223802,0.9683959460916377,0.0027987945732894587,0.003881441677772469,0.0035630083018551462
-0.04994396751795245,0.1950935055089808,-0.16995314172925677,0.17141691178044635,0.0751773795991037,-0.1163140987223051,-0.012517322206253258,-0.00048126442008171775,0.9696422108574976,0.002628841431560202,0.0038314977102545163,0.0037581018073641267
-0.062037204431357226,0.11768098230190416,-0.14390334712725605,0.07746459777643215,0.09890597556877545,-0.17456754461004914,-0.007022761044412998,0.0010472829484124066,0.9616860457411651,0.0024849380844329458,0.0037694605058231595,0.0038757827896660313
-0.21901600902471685,0.12058690880962132,-0.21868206790633005,0.04594948902732347,0.008504042326079627,-0.09649175894582471,-0.01872659861967761,0.006272514055568018,0.9673077375059165,0.0022662560165266155,0.003550444496798442,0.003996369698475653
-0.06429270783218068,-0.09683101813828664,-0.2113753976753993,0.04019565928990707,0.02762353192523348,-0.05174438059619731,-0.02516094388171981,-0.0016873294932297223,0.9646395535910276,0.0020548806188512166,0.003486151788966261,0.003899538680337366
-0.1658248893598669,-0.09720189417552581,0.003755549802610586,0.03590404737951753,0.0847571875035788,-0.08126582605468499,-0.012265725313676987,0.007718174476459237,0.9655310572190821,0.002058636168653827,0.0033203268996063943,0.00380233678616184
-0.2614123730128977,-0.19915015794783364,-0.12327498414900924,-0.002889173042351349,-0.0005280512406666345,-0.0037429819344929147,-0.023317899340026572,-0.0007544698817518612,0.9660906283114897,0.0019353611845048177,0.003058914526593497,0.0036031866282140064
-0.27144481836185463,-0.3204599003984674,-0.09573632429852194,-0.010545005993310475,0.059885211781231115,-0.06583148939029358,-0.00818995339909172,-0.00019661330387158772,0.9662943077351586,0.0018396248602062957,0.0027874697082316425,0.003282726727815539
-0.27651216289476455,-0.08916033002333704,-0.12083018893692665,0.014050000694906601,0.010217873038704786,0.05624558523216847,-0.011703329490315887,0.005689690941162106,0.9662460594921154,0.001718794671269369,0.0025109575453368775,0.003193566397792202
-0.32178459637156337,-0.2028688176492876,-0.15050367737114728,-0.08843261932836141,0.051295645104289744,0.08927852941531418,-0.01589260713473141,-0.0001884957481885325,0.9710554153224523,0.0015682909938982217,0.002189172948965314,0.0029906975801429142
-0.2551262099947565,-0.2932562636615631,-0.07054545377076821,-0.14554706635037343,-0.014367853032602046,0.12537975799714957,-0.009299418841782264,0.0056490938002803194,0.9732253959334374,0.0014977455401274536,0.0019340467389705577,0.002697441316481351
-0.3426127247226019,-0.32875676918350244,0.01738290687540434,-0.1560781121286111,0.0007280729874429366,0.11672996083158992,-0.009726916233226832,-0.0015346468819664291,0.970503482112918,0.001515128447002858,0.001591434014247956,0.0023686845472978488
-0.3268042958159779,-0.2757437449527274,0.06145566617504989,-0.12259169331301095,0.051317203205330515,0.1069716213927605,-0.010841243379959377,-0.003699365563608997,0.9684994790548519,0.0015765841131779078,0.0012646297184319777,0.002092940802345121
-0.3349039054445975,-0.1742440909719589,0.19339151238761448,-0.1330307563119642,-0.010503068372117072,0.13968949994795624,-0.009762377861111301,-0.002878088674143602,0.960203466268812,0.0017699756255655221,0.0009297258129873803,0.001918696711373162
-0.3079097367546104,-0.18364144461041246,0.1961284488190558,-0.09364160342482515,-0.05047416357930453,0.18180724978656837,-0.01504914789516195,0.005300416931223741,0.9626642831689565,0.0019661040743845777,0.0006218160762327698,0.0017350552667627498
-0.15251759209604523,-0.10797323054203686,0.24875086854029105,-0.12802219263935283,-0.0945827322592367,0.14908298559436542,-0.013197549086600393,-0.004488161176789402,0.9638745014384128,0.002214854942924869,0.00046929848413672457,0.0016270820362207128
-0.18525506950784384,-0.08689450272698593,0.26831301266327057,-0.08973111292968172,-0.11798444642942335,0.157514350155906,-0.027855711963784738,0.0015836892499498279,0.9649689444067242,0.0024831679555881395,0.00028404341462888075,0.001540187533493727
-0.09473425473942243,-0.055193489122042735,0.1775876728395251,-0.0406604415836758,-0.1161118240149322,0.17112896513792353,-0.023711237799897915,-0.0020502172276093958,0.9679418469900659,0.0026607556284276644,0.0001893091598894583,0.0014849940443716842
-0.12263666306563153,0.02700019484419403,0.12361667878422566,-0.02882218499371606,-0.12236187438481762,0.10951385996340501,-0.006945578400263007,-0.00402298298953355,0.971295571392209,0.00278437230721189,6.667249682382675e-05,0.0015119942392158782
0.0205601286660397,0.12993036141050013,0.28752089733164565,0.036024595725552916,-0.06321233578960135,0.11532412120009634,-0.019643457438243556,-0.008890344830612028,0.9682313794858957,0.0030718932045435358,8.723262548986647e-05,0.0016419246006263784
0.014216842194182795,0.035972841503272956,0.17112583263725228,0.020360662543295074,-0.11746965309186926,0.11892778251807615,-0.01470730070907598,-0.003725841863909261,0.9650845643341479,0.003243019037180788,0.00010144946768404924,0.0016778974421296515
0.09323073315170187,0.21580868283024318,0.13729102703777074,-0.01342749011046779,-0.10307175052861521,0.08097511974609788,-0.01489209423546141,-0.006752633279419705,0.9710958466703054,0.0033803100642185594,0.0001946802008357511,0.0018937061249598944
0.09955805476924688,0.24057837271128735,-0.05518121521777505,0.06555019330019654,-0.08893929396094713,0.10432802766505664,-0.008166389919320918,0.0034396316462192485,0.9597292771143866,0.0033251288490007847,0.000294238255604998,0.002134284497671182
0.31346672282570437,0.13451353663098725,-0.26948661134630986,0.15991915927025938,-0.08632194500750398,0.019794121855379224,-0.007590898341014038,-0.001698093002972296,0.9713231882899127,0.003055642237654475,0.0006077049784307025,0.002268798034302169
0.23171538341029105,0.16442645202133238,-0.09670461852708981,0.13506407573052,-0.08234878863309847,-0.03523174209741304,-0.02173217573188789,0.00022751718625964746,0.971484481156294,0.002958937619127385,0.0008394203618409934,0.0024332244863235018
0.2806648776097193,0.3581724409447573,-0.03120314340581984,0.16057409808078893,-0.05386001517425083,-0.02930467679636599,-0.021191275563033542,-0.007014825681931324,0.956630701566354,0.002927734475721565,0.0011200852394507128,0.002791396927268259
0.31615020076961586,0.1839378775427304,-0.12268699460240214,0.11975922053858308,-0.05786674272500495,-0.10576552270323936,-0.012092915964857686,-0.0073440511771934395,0.9617895806088552,0.002805047481119163,0.0014362354402203286,0.002975334804810989
0.22656062017571466,0.26507936046114544,-0.3201377479959234,0.15504098317580195,-0.061343029433553214,-0.06894918105737756,-0.018892352608376586,-0.005988943924437192,0.9624088002529487,0.0024849097331232396,0.0016627960603960432,0.003240414165272135
0.32294375289111077,0.13753198492693303,-0.31187942490939485,0.19742786290166997,-0.01597630272627179,-0.06964325423734566,-0.010935819190531887,-0.00582339327058499,0.9651680951337712,0.0021730303082138445,0.001985739813287154,0.0033779461501990678
0.32813034323609497,0.18922317979961015,-0.46432536007345987,0.10386190208989528,-0.03505869682252335,-0.01342527769735947,-0.00756885991745834,-0.006436743339731096,0.9683420188632951,0.001708704948140385,0.002313870156523249,0.003567169329998678
0.22280262865146389,0.01050317311865824,-0.4458287603408959,0.12771727858033002,0.01600100626616406,-0.041471032649093534,-0.02191950961222556,-0.008694849796561675,0.9674612038888727,0.0012628761877994889,0.0025366727851747132,0.003577672503117336
0.2900043515291542,0.11734144887937778,-0.28871498867024364,0.11733481499178253,-0.025349512892569395,-0.12465890624130459,-0.011462974308291237,-0.003939783714876155,0.9619464433723566,0.0009741611991292452,0.0028266771367038675,0.003695013951996714
0.2057628865339767,-0.06486624564295325,-0.2015624249387414,0.06762949802373408,0.010296434596756072,-0.0900093431280775,-0.017842770441510142,-0.009546473044921976,0.970071046784838,0.0007725987741905038,0.0030324400232378448,0.0036301477063537604
0.2718180302581233,-0.07653358239765166,-0.301912155311176,0.04510354685536738,-0.00021102672918999745,-0.0574958629458733,-0.010948878989248938,0.0028696065445208314,0.9713581236187542,0.0004706866188793278,0.0033042580534959677,0.003553614123956109
0.2567211350618133,-0.104753706005832,-0.22991360634545893,0.005069568928643094,-0.0066863698202295554,-0.10045832748825151,-0.019337106232240435,-0.005110062104998982,0.9596145439943418,0.0002407730125338688,0.003560979188557781,0.0034488604179502766
0.1734276528167132,-0.1493474647167326,-0.09719200662791033,-0.02975321303622275,0.13109401209766552,0.03738221490762947,-0.0126925931623672,-0.0015909117609103109,0.9617611245704593,0.00014358100590595847,0.0037344068413744944,0.003299512953233544
0.1175525129917078,-0.129605400037112,-0.033031616173181254,-0.08417016347389994,0.0708887471475752,0.02726299986638485,-0.017665269027224942,-0.011193061515578674,0.9753937777343239,0.0001105493897327772,0.0038519593543662025,0.0031699075531964314
0.028674530305981525,-0.22652155673095792,0.06674201454616084,-0.10877541596560443,0.10001094334028623,0.07957863540127348,-0.016471515538803914,-0.011614220581880236,0.9617990355904846,0.00017729140427893804,0.0038806338846721837,0.002943385996465474
-0.13798800187278165,-0.36395729301307084,0.07272874699856094,-0.16980719244557263,0.09054542800162488,0.028245041847774016,-0.019969505474800836,-0.004858566434551445,0.9665738235021953,0.00025002015127749904,0.0037426458827994023,0.0025794287034524035
-0.16822058347163307,-0.478997774802258,0.14998309134087806,-0.19246024782393376,0.04365484766271749,0.0404929288883212,-0.016126224199812942,-0.00629810571103036,0.9642382848087799,0.00040000324261837706,0.0035744252993277687,0.002100430928650145
-0.2731535747761366,-0.43821407281718733,0.023445168383319448,-0.1616823544439079,0.14489575675381342,0.03231138767810048,-0.020356039671842727,-0.006617405354814428,0.9509470116878596,0.00042344841100169653,0.003301271724551633,0.0016622168558329577
-0.29647242913657446,-0.3860484551625426,0.1550197129434041,-0.19914391780146123,0.0632724507438019,0.0719107687866298,-0.02186497118729723,-0.009318523979354723,0.9616173081266625,0.0005784681239451006,0.003004799295415058,0.0012761684006704155
-0.41650874095562485,-0.4559114114661018,0.28937463492914295,-0.2576420438681979,0.1394673702529845,0.08473182308762146,-0.016039980944024344,-0.013757026368798178,0.9620559478185399,0.0008678427588742436,0.0025882905544594333,0.0008202569892043134
-0.4268073967696971,-0.38299809420419423,0.22089406708225343,-0.1998991938861476,0.12451987417206924,0.08450195749695846,-0.017445257430518925,-0.01088445872793601,0.9692412095172772,0.0010887368259564969,0.0021614831576897363,0.00043725889500011926
-0.4883154340329335,-0.3913986829769393,0.23065151657728383,-0.27311374423981755,0.03996969200783997,0.06399965727388261,-0.020132920678871305,-0.008871873492011953,0.9645155731392224,0.0013193883425337808,0.0016731677236568026,4.5860212023179915e-05
-0.5919248572530562,-0.17968469472876722,0.35474982235367436,-0.1914117696213221,0.052429260723499564,0.07722624478175741,-0.02854039204765313,-0.005446323514076449,0.9658380095073262,0.0016741381648874552,0.0010812428664037463,-0.00013382448270558733
-0.48663321607276766,-0.4133538484644318,0.24717637302907555,-0.23674639034565406,0.09094963342538871,0.04205779952000246,-0.01800339554948122,-0.008947837916537055,0.970325239242881,0.0019213145379165305,0.0005946096503309787,-0.0005471783311700191
-0.5771954020426449,-0.13839326249955425,0.26437780130156213,-0.18613770514157665,0.061425119436080575,0.06444736546002246,-0.02471298151461148,-0.010217650280195492,0.9640370919016401,0.0021856923392180928,1.7414248288333825e-05,-0.0006855715936695734
-0.4690020561458053,-0.17220987924762846,0.0657496608170246,-0.13454256773420048,0.04868105219292414,0.10501903214199514,-0.016211755338999545,-0.006556632672198948,0.9616688519191309,0.002251442000035117,-0.0004515878078574715,-0.000857781472917202
-0.5290260487059589,-0.10511157740630231,0.04933842932408922,-0.16567864140584326,0.048153796533906994,0.006444988961373618,-0.009788565025985907,-0.008174519022962437,0.9628604018500929,0.0023007804293592063,-0.0009806138565634304,-0.0009628930503235042
-0.5791237683119557,0.031569015390112365,0.17350506713015898,-0.0789760731449601,0.04557715480596449,-0.026946783905025633,-0.024527567639329794,0.0004963560580482744,0.9658998348071123,0.0024742854964893654,-0.001559737624875386,-0.0009313240349333919
-0.4980535691061665,-0.09213264432406527,0.08386711860195954,-0.03813906172188193,-0.026469447898336856,0.03250211270338241,-0.020501742605216807,-0.017518629591044367,0.9648698668940168,0.002558152615091325,-0.0020577911939815524,-0.0010234566792574572
-0.4339007542658574,0.18995526036468852,0.017203169299831282,0.013382682875142417,0.001969451817287515,-0.007633264803737933,-0.018924664707133776,-0.0019201330141216041,0.9704885347186409,0.0025753557843911563,-0.00249169194824741,-0.0008335014188927686
-0.5517815793620401,0.18515106737926237,-0.13153465114998067,0.07955058659414999,-0.07615622375695114,-0.1080779176985434,-0.010163819233696306,-0.009825350690453634,0.9626747260617131,0.0024438211332411756,-0.00304347352760945,-0.0006483503515135062
-0.42639291037556315,0.2875105198546815,-0.039754955838512795,0.13262699622406254,-0.005392802442974705,-0.13591527673057924,-0.017664198547153558,-0.011018480734613954,0.9602514837980647,0.0024040661774026627,-0.0034698664379850135,-0.00036083983165882466
-0.45452223275681547,0.2325866882245521,-0.17583761267513934,0.12547162751622812,0.03831879863782146,-0.1119167877565233,-0.014647884708722064,-0.008185085987365736,0.9676277001713198,0.0022282285647275235,-0.003924388670741829,-0.00012825314343427256
-0.3325083591020038,0.3037820017857002,-0.2731602843429484,0.1353557916113286,-0.08925378655007189,-0.11736814815033546,-0.010910614809271626,-0.016320570824509936,0.9714600106807955,0.001955068280384575,-0.004256897029843833,0.00017552885835142766
-0.177417190821185,0.35449178628610134,-0.31790410205267905,0.2123095837664913,-0.06257591860410004,-0.14602051701853652,-0.018076925568430827,-0.011037347294667255,0.9722725046002922,0.0016371641783318959,-0.0044343142206650175,0.000530020644637529
-0.018995067295195983,0.4131604669086667,-0.3736323310905574,0.2469625654541188,-0.11549504953819109,-0.21469921279260207,-0.016613298399175754,-0.0118816108594411,0.9613068662527549,0.0012635318472413385,-0.004453309287960214,0.0009431811115461956
-0.0037291010710831032,0.40617017480438444,-0.15698277705439792,0.20320534455918077,-0.08028431707369667,-0.15023471265446153,-0.01498490946202706,-0.008674652559166753,0.9688282382691448,0.0011065490701869405,-0.004457038389031297,0.0013493512863505801
-0.009103868457105271,0.3742129026083596,-0.16163624185516706,0.2049743887736861,-0.10232730094125123,-0.0617104744978352,-0.01258639417856802,-0.009446500122371542,0.9584312639769323,0.0009449128283317734,-0.0044661422574884015,0.00172356418895894
0.12811212471420377,0.3143100510279066,0.0978668694786459,0.25742771183203755,-0.07113814715017822,-0.08936826644333343,-0.012718060071308013,-0.010291087085679154,0.966503320327464,0.0010427796978104192,-0.0043380301327741976,0.002037874239986846
0.12039613397096591,0.29241827620977917,-0.036326680423246833,0.16573117547910116,-0.02230116869776624,-0.10021487709509476,-0.01978372042586588,-0.011761165894643868,0.9731838183430888,0.0010064530173871725,-0.004217633998803232,0.0023302925161966257
0.2543480785675565,0.4465661421070327,-0.03531567218407356,0.22562129361516156,0.018162699205182504,-0.12539004113787786,-0.020645365804898883,-0.008328714886695851,0.9598897100107008,0.0009711373452030988,-0.003963285920235675,0.0027768586583036582
0.4620225769429611,0.32853047074225894,0.02064283021140004,0.1479698973410726,0.011058071893813002,-0.07426482265525682,-0.028445714335163783,-0.012679936168729547,0.9643799099954987,0.000991780175414499,-0.0035012633432927143,0.003105389129045917
0.28218906558377077,0.1421772934725929,0.07641313792722981,0.12392619234069106,0.01069391344898303,0.038139569363377035,-0.02330100996874293,-0.008103780603455728,0.9620292626482687,0.0010681933133417285,-0.0032190742777089437,0.00324756642251851
0.3734897298712408,0.16061167244498378,0.020142723071184823,0.11194403071658518,-0.01524626100817001,0.03290565766485255,-0.01979397505008,-0.018802580109741857,0.9708990301959022,0.0010883360364129133,-0.0028455845478377027,0.003408178094963494
0.548479407144842,0.04048976416661432,0.11831828992177863,0.08377785688623371,0.02322203993229972,0.030375941344480496,-0.018412035167814866,-0.017189273140286364,0.9672660307607279,0.001206654326334692,-0.0022971051406928604,0.0034486678591301085
0.6177127562220373,-0.10332044138333948,0.18870997004437817,0.04260618724097345,0.007870401441406478,0.06602311575882526,-0.02598531461546535,-0.010328826763300112,0.9677914622047767,0.0013953642963790702,-0.001679392384470823,0.0033453474177467693
0.5317544007061423,0.0003048682810241343,0.21131612104564101,0.03163665024017577,0.03519269679386311,0.09172996543443161,-0.01382862762368669,-0.016719957149010013,0.9587424646461874,0.0016066804174247112,-0.0011476379837646806,0.0033456522860277936
0.6180204914917746,-0.1239146203210982,0.13814452046894848,0.01102013888224635,0.013747705167368184,0.14255093156384635,-0.017423243668699767,-0.016421321039291698,0.9638867666698084,0.0017448249378936597,-0.0005296174922729059,0.003221737665706695
0.5932832274991575,-0.13267553740641452,0.24651102279633239,-0.10765680224612237,0.03183010851625021,0.14812588365242157,-0.01393176202679181,-0.021700255577474535,0.9558659015697412,0.001991335960689992,6.366573522625152e-05,0.003089062128300281
0.6196028392123811,-0.2006867694591001,0.19870740889978059,-0.1263373208666451,0.08528813209763274,0.15968522038970523,-0.022929616590638625,-0.018824917446275857,0.9605174883072982,0.0021900433695897724,0.0006832685744386327,0.002888375358841181
0.38213645337493074,-0.16888352662913567,0.11230364040588137,-0.09922581803520354,0.024422068480519653,0.19215429734992492,-0.013773711370402985,-0.016679242407781524,0.963343358793018,0.0023023470099956538,0.0010654050278135635,0.002719491832212045
0.5580696373280373,-0.28925643236834814,0.14274046763459927,-0.10368900854695373,0.03461754069159303,0.1763474481676821,-0.011601429770653718,-0.0181975005442579,0.9533975625730103,0.0024450874776302534,0.001623474665141601,0.0024302353998436974
0.5446485616094375,-0.18581987151589763,0.06118089040380276,-0.14085458773503454,0.0113767238832569,0.21413588953500504,-0.0165990928527338,-0.012258408927546757,0.95733568943097,0.0025062683680340562,0.0021681232267510386,0.002244415528327799
0.4530975392587073,-0.2149912179514407,-0.08004911994376267,-0.12443372418635612,0.0349230896694029,0.14950418680354752,-0.023952610688000378,-0.010387126040170714,0.9635425648614592,0.0024262192480902934,0.0026212207660097457,0.0020294243103763585
0.3286497967523327,-0.1711164602744336,0.07714805519248935,-0.15950900884872854,0.059632496102194045,0.14734826409292986,-0.02071741911886045,-0.019156465994190255,0.9626538775833162,0.002503367303282783,0.0029498705627620785,0.0018583078501019246
0.35827917314534063,-0.143540642293572,-0.1446732784562742,-0.19544271339506014,-0.015241131569070303,0.06711816652596612,-0.020161188628472895,-0.005103365559525534,0.9669280598629684,0.0023586940248265086,0.003308149735907419,0.0017147672078083528
0.2196240500410524,-0.24973636656982295,-0.14854635926574797,-0.12689344963923024,0.06367725210966294,0.09585231476877142,-0.019879649020972886,-0.019259746918756565,0.9690314957711141,0.002210147665560761,0.003527773785948471,0.0014650308412385302
0.2811906102715328,-0.12866507324342447,-0.11211938079323175,-0.11301438948484462,0.019688847295417516,0.06903802406502355,-0.013074369122691408,-0.02348373523566122,0.9637668794912665,0.002098028284767529,0.0038089643962200045,0.0013363657679951056
0.09581733496463324,-0.07982974233064755,-0.26714789656097576,-0.08774596950985522,0.003918468813050816,0.1048339474922899,-0.019355053296840254,-0.005237745616289176,0.9603956698862871,0.001830880388206553,0.0039047817311846375,0.0012565360256644581
0.06293875925758764,0.005911874485564442,-0.23891048797375625,-0.01777827325118806,0.007490278288006792,0.04032041885962447,-0.02347022589742856,-0.013358488247122444,0.9677848484716833,0.001591969900232797,0.003967720490442225,0.0012624479001500225
-0.0505056361757093,0.007780229672057888,-0.38954974832331946,-0.009579877114079108,-0.009520844724236444,0.017148923263950337,-0.014189832702965859,-0.020505191519459835,0.95657657916051,0.0012024201519094775,0.0039172148542665165,0.0012702281298220804
-0.062471871128643955,0.15089513999957693,-0.32497998407164486,0.013553504505639063,-0.020838415224330758,-0.04663979586862954,-0.01827571756003302,-0.011852515053468739,0.971529284757366,0.0008774401678378328,0.003854742983137872,0.0014211232698216573
-0.20643307827773158,0.23976462869787968,-0.3148813721577164,0.01948547908428725,-0.04610698429984905,-0.0404848895616652,-0.010493218994288315,-0.010643118683022776,0.9618968051361605,0.0005625587956801162,0.0036483099048601406,0.0016608878985195368
-0.24230637397729524,0.3040629410273765,-0.3194579343151641,0.03162765090454761,-0.06322862288332191,-0.0919967078538138,-0.015542289309935254,-0.01427056224648931,0.9593069380448462,0.00024310086136495213,0.0034060035308828454,0.0019649508395469134
-0.3793134277075141,0.12306945379207541,-0.3442302863205081,0.13583883223577006,-0.0689186474710664,-0.06802558171811876,-0.016887911830886542,-0.01363257660434198,0.9628043500849136,-0.00010112942495555599,0.0030266901031753314,0.0020880202933389893
